Folder: MyBatteryML/calce_correlation_analysis/matrices (part 4)

File: CALCE_CX2_16_cycle_feature_matrix.csv
cycle_number,rul,voltage,current,capacity,charge_capacity
463,829,3.82268,-0.0233863,0.363679,0.964465
469,823,3.82458,-0.0205237,0.361067,0.961621
475,817,3.82447,-0.021546,0.36185,0.962974
482,811,3.82463,-0.0199918,0.36001,0.960352
488,805,3.82395,-0.0210669,0.359983,0.960612
494,799,3.82472,-0.0223675,0.360697,0.95709
500,793,3.83173,0.00370495,0.351942,0.957607
506,787,3.82816,-0.0186833,0.357495,0.954883
512,781,3.83585,-0.0217182,0.363019,0.952096
518,775,3.8399,0.00709209,0.346876,0.969406
524,769,3.82576,-0.0207866,0.361113,0.961587
531,763,3.82783,-0.0145542,0.357864,0.960432
537,757,3.82708,-0.0213636,0.358864,0.955771
543,751,3.82402,-0.0207893,0.357031,0.953053
549,745,3.8239,-0.0225193,0.356625,0.948707
556,739,3.82883,-0.0199304,0.355918,0.949505
563,733,3.82793,-0.0204269,0.355913,0.947446
569,727,3.82627,-0.0205382,0.355888,0.949548
575,721,3.82785,-0.0193075,0.354101,0.948609
581,715,3.82456,-0.0220459,0.354373,0.941038
587,709,3.82752,-0.0206016,0.353659,0.941981
593,703,3.82743,-0.0210333,0.353625,0.941917
600,697,3.826,-0.0203802,0.353602,0.941602
606,691,3.82479,-0.0218505,0.351399,0.937459
613,685,3.82941,-0.0198239,0.352937,0.942648
619,679,3.82794,-0.0204523,0.352926,0.944366
626,673,3.82804,-0.0191889,0.349979,0.93695
632,667,3.82439,-0.021556,0.351359,0.936039
638,661,3.82809,-0.0192008,0.349548,0.930529
645,655,3.82666,-0.0171382,0.349934,0.936067
651,649,3.83238,-0.00879151,0.344661,0.935616
657,643,3.82726,-0.0201582,0.348444,0.92962
666,637,3.82588,-0.0195732,0.350737,0.939409
672,631,3.82436,-0.0203776,0.348472,0.931258
679,625,3.8256,-0.0205361,0.347351,0.926812
685,619,3.82585,-0.0216907,0.347318,0.924625
691,613,3.82508,-0.0199756,0.345474,0.925614
697,607,3.82539,-0.0209293,0.34436,0.921515
703,601,3.82572,-0.0210452,0.345061,0.918469
709,595,3.83173,-0.0239722,0.349446,0.918837
715,589,3.82516,-0.0212951,0.345067,0.919928
721,583,3.82697,-0.020231,0.343259,0.919161
727,577,3.82759,-0.0209138,0.344359,0.918069
733,571,3.82866,-0.0203163,0.343261,0.917082
739,565,3.82833,-0.0187229,0.342558,0.91839
745,559,3.82752,-0.0191368,0.341414,0.914609
751,553,3.82646,-0.0211185,0.342107,0.913557
758,547,3.82639,-0.0189202,0.343178,0.914997
764,541,3.82362,-0.0265898,0.346519,0.920132
771,535,3.80991,-0.228557,0.443969,0.489485
777,529,3.82483,-0.0257103,0.344658,0.916589
784,523,3.82432,-0.026628,0.342441,0.91045
790,517,3.82427,-0.0256502,0.341301,0.906372
796,511,3.82493,-0.0263681,0.341303,0.906126
802,505,3.82648,-0.0254949,0.341698,0.911179
808,499,3.82512,-0.0251859,0.341686,0.911136
814,493,3.82597,-0.0257846,0.340572,0.907932
820,487,3.82374,-0.0257969,0.340161,0.900812
826,481,3.82416,-0.0266766,0.340134,0.903831
832,475,3.82421,-0.0271668,0.339001,0.899262
838,469,3.82451,-0.02571,0.338282,0.902038
844,463,3.82329,-0.0275298,0.338975,0.898546
850,457,3.82457,-0.0262117,0.33715,0.898385
856,451,3.82543,-0.0275096,0.337859,0.894577
862,445,3.82572,-0.0250442,0.335322,0.89384
868,439,3.82439,-0.0269512,0.33603,0.894512
874,433,3.82445,-0.0260273,0.336066,0.894293
880,427,3.82417,-0.027923,0.33788,0.894847
887,421,3.82609,-0.0253754,0.335407,0.896556
894,415,3.82423,-0.0271206,0.334973,0.889893
901,409,3.82327,-0.0269564,0.334958,0.889857
907,403,3.82474,-0.0261933,0.333136,0.889263
913,397,3.8241,-0.0275197,0.333868,0.885605
919,391,3.82653,-0.0253274,0.333143,0.888294
925,385,3.82536,-0.0262669,0.333144,0.887999
931,379,3.82485,-0.0267011,0.33202,0.884777
937,373,3.82275,-0.0284408,0.332705,0.881759
945,367,3.82614,-0.0251396,0.337642,0.900349
953,361,3.82743,-0.0251379,0.338763,0.90157
961,355,3.82859,-0.0239141,0.339918,0.905836
974,349,3.82796,-0.0259355,0.338411,0.897389
981,343,3.8278,-0.0238897,0.339901,0.906016
988,337,3.82894,-0.0223331,0.341454,0.915706
999,331,3.8267,-0.0237023,0.334706,0.89816
1005,325,3.82781,-0.0227167,0.332884,0.894046
1011,319,3.82508,-0.0242983,0.333565,0.890505
1018,313,3.82937,-0.0234056,0.335834,0.898239
1024,307,3.82934,-0.0227777,0.3392,0.906855
1036,301,3.82754,-0.0235408,0.332855,0.892694
1043,295,3.82828,-0.0264352,0.334311,0.887252
1049,289,3.82745,-0.0251311,0.336525,0.89397
1056,283,3.82848,-0.0227409,0.336228,0.900277
1062,277,3.82922,-0.022215,0.337361,0.906371
1070,271,3.82801,-0.0238942,0.335821,0.896375
1076,265,3.82573,-0.0205829,0.329255,0.891466
1087,259,3.82782,-0.0205038,0.33156,0.899304
1100,253,3.82658,-0.0230017,0.332866,0.89289
1107,247,3.8295,-0.0229021,0.334064,0.896033
1115,241,3.82833,-0.0232802,0.328812,0.882519
1122,235,3.82802,-0.0227689,0.33511,0.898534
1130,229,3.82777,-0.0235584,0.331731,0.888019
1136,223,3.82766,-0.0232465,0.331706,0.887684
1142,217,3.82745,-0.0211763,0.328085,0.886348
1148,211,3.82633,-0.0229971,0.332931,0.892913
1155,205,3.82997,-0.0214506,0.334457,0.901034
1161,199,3.82992,-0.0215381,0.335613,0.90362
1168,193,3.82807,-0.0197926,0.329691,0.896309
1174,187,3.82835,-0.0195698,0.324463,0.882539
1180,181,3.82655,-0.0244274,0.328384,0.876598
1186,175,3.8268,-0.0230529,0.327773,0.878805
1195,169,3.83438,-0.0383289,0.336049,0.866347
1202,163,3.83008,-0.0226527,0.32997,0.885625
1209,157,3.82737,-0.0224211,0.327005,0.880763
1217,151,3.82622,-0.0189092,0.321561,0.879128
1223,145,3.8266,-0.0227453,0.322535,0.867739
1231,139,3.828,-0.0230656,0.329961,0.884725
1243,133,3.82774,-0.0189322,0.321538,0.878366
1250,127,3.82759,-0.0238178,0.320235,0.86025
1256,121,3.82678,-0.0237948,0.320225,0.859891
1272,115,3.82808,-0.0208122,0.321127,0.869975
1282,109,3.82327,-0.0203512,0.314737,0.856223
1290,103,3.82457,-0.0242357,0.31501,0.846719
1298,97,3.82579,-0.0253681,0.320937,0.855544
1304,91,3.82656,-0.0232009,0.322488,0.865488
1317,85,3.82632,-0.0231899,0.316219,0.850369
1325,79,3.8272,-0.022928,0.318465,0.856925
1334,73,3.82703,-0.0239356,0.322518,0.864302
1349,67,3.82659,-0.0241232,0.313864,0.843563
1356,61,3.82908,-0.0260486,0.315705,0.840242
1365,55,3.82581,-0.0245097,0.316834,0.847735
1379,49,3.82298,-0.023259,0.310867,0.837364
1390,43,3.8252,-0.0248701,0.310447,0.831032
1398,37,3.82755,-0.0241759,0.313876,0.841705
1404,31,3.82701,-0.0237598,0.317282,0.852205
1418,25,3.82478,-0.0267378,0.3112,0.827732
1426,19,3.82464,-0.0236268,0.308601,0.829598
1439,13,3.82379,-0.0255529,0.306356,0.822557
1454,7,3.82416,-0.0265633,0.30932,0.82387
1467,1,3.82145,-0.0279586,0.304796,0.810765
1473,0,3.82228,-0.0258838,0.301833,0.806349
1479,0,3.82027,-0.0273017,0.300676,0.802009
1485,0,3.82679,-0.041442,0.309436,0.789351
1493,0,3.81764,-0.0281807,0.299534,0.79986
1499,0,3.82044,-0.0277717,0.300704,0.802909
1505,0,3.81897,-0.0296414,0.300268,0.795983
1511,0,3.8205,-0.0298154,0.298004,0.789321
1517,0,3.81915,-0.0282428,0.295037,0.785192
1523,0,3.81725,-0.0309113,0.295743,0.78216
1529,0,3.81726,-0.0322373,0.293486,0.774658
1537,0,3.81771,-0.0259033,0.293148,0.779518
1543,0,3.81877,-0.0265528,0.293151,0.778716
1549,0,3.82033,-0.0260174,0.291325,0.77639
1555,0,3.82081,-0.0256312,0.295451,0.787032
1562,0,3.8188,-0.0239614,0.295868,0.791023
1568,0,3.81674,-0.0253247,0.291304,0.777275
1575,0,3.8196,-0.0261024,0.290197,0.773161
1581,0,3.81824,-0.0270151,0.292054,0.77639
1588,0,3.82246,-0.0306924,0.260144,0.731788
1594,0,3.82119,-0.0314756,0.257307,0.721275
1601,0,3.82249,-0.0293459,0.255188,0.721351
1607,0,3.82073,-0.0327396,0.255335,0.717334
1614,0,3.81838,-0.0322104,0.258008,0.72046
1620,0,3.81818,-0.0324776,0.256586,0.716455
1626,0,3.81803,-0.034835,0.255927,0.710636
1638,0,3.81906,-0.0299845,0.257312,0.721474
1646,0,3.8179,-0.0324081,0.258024,0.719406
1653,0,3.81821,-0.0306598,0.255901,0.721696
1659,0,3.81679,-0.0348686,0.257347,0.712939
1665,0,3.81805,-0.0333589,0.253339,0.708932
1671,0,3.81685,-0.0328021,0.25383,0.707519
1680,0,3.81624,-0.0316232,0.25733,0.722823
1688,0,3.81608,-0.0315493,0.254507,0.713847
1694,0,3.81444,-0.0331236,0.255218,0.712768
1700,0,3.81456,-0.0329366,0.253808,0.708122
1711,0,3.81453,-0.0339848,0.252414,0.703373
1717,0,3.81561,-0.0320258,0.251727,0.706231
1723,0,3.81453,-0.0328849,0.248894,0.697822
1739,0,3.81086,-0.0327621,0.260866,0.730877
1753,0,3.80857,-0.0350511,0.257355,0.712026
1760,0,3.81152,-0.0357918,0.257368,0.711057
1775,0,3.81147,-0.034695,0.260204,0.723222
1781,0,3.81099,-0.0348956,0.263029,0.731959
1800,0,3.80994,-0.0310944,0.250331,0.706122
1813,0,3.80796,-0.0359563,0.26092,0.720703
1832,0,3.80886,-0.0331486,0.251066,0.702416
1840,0,3.80686,-0.0385505,0.252486,0.693457
1856,0,3.80651,-0.0337177,0.251003,0.701932
1868,0,3.80476,-0.0280114,0.247432,0.709186
1882,0,3.80781,-0.0367186,0.247529,0.685644
1893,0,3.80389,-0.0318759,0.251672,0.712334
1911,0,3.80574,-0.031468,0.255916,0.726651
1928,0,3.80357,-0.0374541,0.25248,0.697883
1943,0,3.80182,-0.0315329,0.250295,0.707967
1964,0,3.80176,-0.0391345,0.251062,0.691726
1975,0,3.80257,-0.0301245,0.246773,0.70612
1983,0,3.79736,-0.0376627,0.251738,0.690092
2004,0,3.79891,-0.0291405,0.260862,0.746352
2025,0,3.79911,-0.0411681,0.262427,0.719941
2046,0,3.79617,-0.0465902,0.247692,0.66781
2065,0,3.7948,-0.0510415,0.251358,0.666375
2083,0,3.79265,-0.0449788,0.249126,0.677717
2126,0,3.78756,-0.0466731,0.249828,0.675553
2142,0,3.78922,-0.0447154,0.247687,0.674249
2173,0,3.78601,-0.0539537,0.25073,0.663618
2189,0,3.78672,-0.0542612,0.254917,0.676892
2220,0,3.78412,-0.0388235,0.241246,0.674866
2245,0,3.78415,-0.0380762,0.236319,0.663616
2286,0,3.78235,-0.0537013,0.254947,0.680703
2319,0,3.78024,-0.0635372,0.237679,0.608834
2361,0,3.77894,-0.0573021,0.247345,0.655178
2412,0,3.76885,-0.0660514,0.231252,0.601339
2427,0,3.77343,-0.0437612,0.221596,0.618293
2452,0,3.77289,-0.0433924,0.215192,0.603808
2478,0,3.76923,-0.0611237,0.22177,0.585144

File: CALCE_CX2_33_cycle_feature_matrix.csv
cycle_number,rul,voltage,current,capacity,charge_capacity
187,535,3.79427,-0.298931,0.466062,0.484608
193,529,3.82118,-0.0407541,0.344241,0.945275
199,523,3.81798,-0.0412719,0.345507,0.94511
205,517,3.82241,-0.0367163,0.339256,0.942898
214,511,3.82145,-0.0395604,0.34204,0.940324
220,505,3.82057,-0.0401349,0.34064,0.936269
227,499,3.82551,-0.0413027,0.342734,0.935086
233,493,3.82296,-0.0371641,0.343268,0.946183
239,487,3.82118,-0.0327888,0.338335,0.947393
248,481,3.82402,-0.0431424,0.342061,0.930038
255,475,3.82293,-0.0331401,0.334196,0.937787
264,469,3.82346,-0.0368963,0.341912,0.944076
270,463,3.82397,-0.0356098,0.341159,0.945474
276,457,3.82162,-0.0391354,0.337103,0.929928
282,451,3.827,-0.0404458,0.339199,0.928497
289,445,3.82229,-0.0333266,0.334107,0.935407
297,439,3.82859,-0.0377144,0.337712,0.930074
303,433,3.82551,-0.0345385,0.337629,0.938213
309,427,3.82849,-0.0446918,0.340743,0.923044
317,421,3.81982,-0.0319238,0.332056,0.933137
323,415,3.8219,-0.0377742,0.332206,0.91931
330,409,3.82382,-0.0392907,0.332867,0.916835
341,403,3.82254,-0.0380824,0.333462,0.92243
348,397,3.82162,-0.0383981,0.330699,0.913395
354,391,3.82515,-0.0386068,0.329345,0.909858
360,385,3.82395,-0.038807,0.329291,0.908784
366,379,3.82616,-0.0370329,0.331375,0.916106
372,373,3.82483,-0.0367769,0.332706,0.918884
378,367,3.82465,-0.0374979,0.3272,0.905992
384,361,3.82541,-0.0402849,0.331369,0.908089
390,355,3.8236,-0.0364534,0.331363,0.920419
398,349,3.82525,-0.0368448,0.331352,0.915897
404,343,3.82598,-0.0356588,0.330618,0.917764
410,337,3.82533,-0.0369858,0.327253,0.905891
416,331,3.82379,-0.0391128,0.327846,0.902308
426,325,3.82245,-0.0346546,0.325653,0.908212
437,319,3.82664,-0.037569,0.325749,0.900103
448,313,3.81955,-0.0357767,0.320875,0.898127
457,307,3.82255,-0.0403027,0.320299,0.880234
464,301,3.82173,-0.0411166,0.318864,0.876574
472,295,3.82493,-0.0362014,0.319428,0.88928
479,289,3.82576,-0.0377397,0.321539,0.889276
485,283,3.82496,-0.0379568,0.322943,0.892062
492,277,3.82335,-0.0391546,0.318086,0.876609
501,271,3.82968,-0.0581516,0.325732,0.852918
511,265,3.82511,-0.039697,0.318168,0.878548
517,259,3.82472,-0.0395112,0.31675,0.874007
523,253,3.82501,-0.0399241,0.318106,0.875814
530,247,3.82497,-0.0379452,0.321492,0.887702
537,241,3.82453,-0.0380795,0.321566,0.887805
543,235,3.82556,-0.0382337,0.320097,0.882838
556,229,3.82475,-0.0361095,0.315351,0.881542
564,223,3.82454,-0.0429002,0.315465,0.862672
574,217,3.8257,-0.0429688,0.312651,0.85464
580,211,3.82468,-0.0397759,0.312582,0.860083
586,205,3.82415,-0.0402748,0.312554,0.860292
593,199,3.82545,-0.0386581,0.310417,0.859678
599,193,3.82543,-0.0387015,0.310372,0.859375
607,187,3.82402,-0.0399755,0.311099,0.858052
614,181,3.82301,-0.0401681,0.306939,0.847272
620,175,3.82346,-0.0427209,0.306357,0.839935
626,169,3.82463,-0.0414267,0.304232,0.83907
634,163,3.82332,-0.0430024,0.304943,0.835489
640,157,3.82479,-0.0429546,0.30351,0.832255
647,151,3.8243,-0.0424835,0.302097,0.827874
655,145,3.82406,-0.0424926,0.303556,0.834013
661,139,3.82111,-0.0425132,0.305565,0.833512
667,133,3.82407,-0.0431838,0.300743,0.825382
674,127,3.82241,-0.0426231,0.302118,0.829741
680,121,3.82139,-0.0449557,0.30146,0.822563
687,115,3.82263,-0.0449598,0.300117,0.818276
693,109,3.82407,-0.0438904,0.297996,0.817271
699,103,3.82196,-0.0438536,0.296571,0.811688
705,97,3.82483,-0.0428948,0.294472,0.810636
711,91,3.82234,-0.0455734,0.29768,0.812106
717,85,3.82242,-0.0441277,0.295176,0.808485
727,79,3.82252,-0.0438763,0.29522,0.810321
733,73,3.82324,-0.0430124,0.293059,0.807508
739,67,3.82215,-0.0441789,0.293799,0.804733
745,61,3.82196,-0.0439359,0.293773,0.804047
752,55,3.8222,-0.043878,0.290233,0.799986
758,49,3.82381,-0.0436341,0.290264,0.797118
764,43,3.82258,-0.0443648,0.291542,0.799753
770,37,3.83186,-0.064158,0.301449,0.77874
777,31,3.82138,-0.0445466,0.291034,0.798136
784,25,3.82294,-0.0438349,0.29025,0.797548
793,19,3.82378,-0.043206,0.287465,0.790918
799,13,3.82357,-0.0442422,0.286067,0.786465
805,7,3.82395,-0.0434708,0.286077,0.787888
811,1,3.82126,-0.045153,0.285409,0.781193
817,0,3.82186,-0.0457319,0.284011,0.776075
823,0,3.82086,-0.0458666,0.283987,0.775861
829,0,3.82146,-0.0467595,0.282607,0.771889
835,0,3.82259,-0.0459141,0.282626,0.773024
842,0,3.82025,-0.0434985,0.284657,0.785837
848,0,3.82067,-0.0450262,0.283263,0.778174
854,0,3.82201,-0.0442741,0.283269,0.778444
860,0,3.82232,-0.0453688,0.284013,0.775815
866,0,3.82258,-0.0439008,0.2805,0.772526
873,0,3.82094,-0.0454817,0.27909,0.766213
879,0,3.82183,-0.0437356,0.27695,0.765492
885,0,3.81968,-0.0463468,0.278437,0.760669
892,0,3.82335,-0.0411123,0.281774,0.781862
900,0,3.82162,-0.0423169,0.279757,0.774103
906,0,3.82116,-0.0452036,0.277721,0.763252
912,0,3.8234,-0.0434379,0.275606,0.760683
918,0,3.82285,-0.0464523,0.274271,0.754191
924,0,3.82206,-0.0463635,0.273535,0.752129
930,0,3.81941,-0.0483177,0.274261,0.748052
936,0,3.8214,-0.0468106,0.271832,0.747
942,0,3.82156,-0.0426794,0.278344,0.767855
948,0,3.82184,-0.0429907,0.278395,0.767251
954,0,3.82453,-0.0412294,0.274916,0.763984
960,0,3.81853,-0.0457751,0.276323,0.758075
966,0,3.82127,-0.0443074,0.274225,0.755425
973,0,3.82393,-0.0428284,0.270718,0.750532
979,0,3.82002,-0.0456231,0.27357,0.749734
986,0,3.82272,-0.0443751,0.270074,0.745883
992,0,3.82332,-0.0418854,0.271951,0.758363
999,0,3.82272,-0.0415366,0.273419,0.758642
1005,0,3.82348,-0.0423184,0.272086,0.754049
1011,0,3.82177,-0.0427429,0.270665,0.751481
1018,0,3.82183,-0.0453624,0.268626,0.741728
1025,0,3.82219,-0.0451647,0.268622,0.741192
1031,0,3.82165,-0.0443988,0.26862,0.742467
1037,0,3.82012,-0.0449249,0.268612,0.740675
1046,0,3.82041,-0.045029,0.269983,0.742488
1052,0,3.82009,-0.0455252,0.2672,0.736248
1059,0,3.82077,-0.0462833,0.263073,0.725922
1065,0,3.81812,-0.0471145,0.263786,0.723212
1071,0,3.81965,-0.0494994,0.263931,0.720261
1077,0,3.81925,-0.0481901,0.26377,0.722361
1083,0,3.8181,-0.0481714,0.263749,0.721948
1092,0,3.81906,-0.0419907,0.266453,0.740097
1098,0,3.81967,-0.0432406,0.266479,0.739217
1104,0,3.82027,-0.0425997,0.265088,0.73674
1110,0,3.81876,-0.0455119,0.265814,0.733848
1118,0,3.81681,-0.0470087,0.265156,0.725593
1124,0,3.8174,-0.0469481,0.263757,0.723274
1130,0,3.81713,-0.0466071,0.263756,0.723177
1136,0,3.81581,-0.0466819,0.2616,0.71958
1142,0,3.8185,-0.0464431,0.261611,0.71987
1148,0,3.81632,-0.0482933,0.262341,0.718137
1155,0,3.81235,-0.141845,0.294922,0.568452
1161,0,3.81583,-0.0479168,0.259543,0.710692
1167,0,3.81495,-0.0492857,0.259208,0.707237
1173,0,3.81727,-0.0485529,0.25994,0.713073
1179,0,3.81594,-0.0488284,0.260946,0.713512
1185,0,3.81636,-0.048396,0.259556,0.709796
1191,0,3.81939,-0.0453808,0.25813,0.711495
1197,0,3.815,-0.0490206,0.259524,0.709733
1203,0,3.81493,-0.0489837,0.256752,0.70263
1212,0,3.81752,-0.0444975,0.26235,0.726628
1227,0,3.81555,-0.0499796,0.267309,0.728878
1240,0,3.81444,-0.0401984,0.268582,0.752093
1256,0,3.81515,-0.0458832,0.269418,0.737681
1262,0,3.81477,-0.045861,0.272222,0.746242
1275,0,3.81144,-0.0487634,0.262368,0.717668
1282,0,3.80932,-0.0506056,0.2617,0.712154
1290,0,3.81006,-0.0508156,0.260303,0.70689
1299,0,3.81391,-0.0479546,0.263809,0.722662
1315,0,3.81036,-0.0530996,0.26465,0.710938
1326,0,3.80791,-0.0513973,0.258907,0.705008
1336,0,3.80952,-0.0473678,0.25603,0.70568
1346,0,3.81129,-0.0486685,0.265952,0.724137
1365,0,3.81328,-0.0525204,0.259687,0.701591
1373,0,3.80933,-0.0469676,0.258802,0.71379
1385,0,3.81033,-0.0470959,0.254595,0.701656
1399,0,3.80981,-0.0580307,0.255382,0.68244
1410,0,3.81018,-0.0514634,0.258929,0.702903
1428,0,3.80704,-0.0558801,0.256202,0.68801
1436,0,3.80651,-0.0497998,0.252591,0.690148
1449,0,3.80722,-0.0528136,0.262469,0.708051
1470,0,3.80317,-0.0502006,0.246945,0.678025
1486,0,3.80438,-0.0530375,0.247707,0.674767
1501,0,3.80479,-0.0583291,0.246441,0.666581
1512,0,3.80482,-0.0511396,0.244848,0.673677
1522,0,3.80306,-0.0565582,0.254828,0.683649
1539,0,3.79888,-0.0607149,0.242989,0.646565
1561,0,3.79504,-0.063755,0.242349,0.642843
1574,0,3.79948,-0.0609778,0.245827,0.655914
1593,0,3.79477,-0.066115,0.235313,0.620843
1609,0,3.79693,-0.0621075,0.235995,0.625572
1629,0,3.78704,-0.0736331,0.227123,0.58829
1641,0,3.78713,-0.07372,0.22567,0.583642
1649,0,3.78981,-0.0692494,0.233317,0.610695
1666,0,3.78667,-0.0662015,0.221894,0.589624
1677,0,3.78299,-0.0797486,0.219287,0.562721
1686,0,3.77678,-0.09177,0.221329,0.550451
1704,0,3.78029,-0.082866,0.218161,0.556003
1718,0,3.77582,-0.0868389,0.208789,0.531156
1726,0,3.77476,-0.0907349,0.204909,0.517814
1735,0,3.77016,-0.0941514,0.203679,0.513394
1744,0,3.76884,-0.0983173,0.200489,0.498584
1752,0,3.7698,-0.0991159,0.198226,0.492356
1758,0,3.77078,-0.0941691,0.1944,0.48933
1764,0,3.76724,-0.0996028,0.193488,0.481804
1770,0,3.76472,-0.102346,0.189368,0.470669
1776,0,3.7628,-0.106196,0.18755,0.459911
1784,0,3.76235,-0.105871,0.188505,0.463069
1797,0,3.7603,-0.100116,0.1958,0.48259
1803,0,3.75709,-0.0979579,0.190671,0.474339
1809,0,3.76202,-0.105731,0.183756,0.453779
1815,0,3.76056,-0.105082,0.179756,0.445881
1821,0,3.76089,-0.105199,0.177771,0.437281
1827,0,3.7633,-0.101554,0.177798,0.441453
1833,0,3.7598,-0.106037,0.178975,0.438
1840,0,3.76281,-0.0881614,0.171982,0.44438
1848,0,3.76258,-0.0940544,0.167968,0.426472
1855,0,3.7613,-0.0989756,0.167885,0.41728
1869,0,3.76374,-0.0977383,0.169478,0.421671
1878,0,3.7609,-0.104224,0.167798,0.409209
1887,0,3.76229,-0.101113,0.155042,0.383791