Folder: MyBatteryML/calce_correlation_analysis/matrices (part 5)

File: CALCE_CX2_34_cycle_feature_matrix.csv
cycle_number,rul,voltage,current,capacity,charge_capacity
8,535,3.82256,-0.058793,0.250489,0.87313
16,529,3.82536,-0.0599847,0.248105,0.865249
22,523,3.82332,-0.0622078,0.246905,0.861669
29,517,3.82387,-0.0572134,0.248062,0.864472
35,511,3.82393,-0.0574583,0.247823,0.86362
41,505,3.82603,-0.0596135,0.242762,0.850824
61,499,3.82149,-0.063275,0.246546,0.853924
67,493,3.82384,-0.0635915,0.243282,0.841439
73,487,3.82235,-0.064877,0.241056,0.834059
79,481,3.82183,-0.0656004,0.241936,0.831127
85,475,3.82392,-0.0641272,0.238997,0.827009
91,469,3.82224,-0.0681649,0.238075,0.816858
99,463,3.82324,-0.0608382,0.236578,0.822299
111,457,3.82354,-0.0666695,0.244537,0.839293
117,451,3.82724,-0.0692921,0.242643,0.826913
124,445,3.82822,-0.0663854,0.240291,0.82224
130,439,3.82491,-0.0644274,0.239938,0.82919
136,433,3.8259,-0.0609773,0.23853,0.827077
145,427,3.82649,-0.0704672,0.237558,0.810609
158,421,3.82774,-0.0658633,0.241859,0.828448
165,415,3.8236,-0.0658951,0.241193,0.832111
171,409,3.8236,-0.0625798,0.240511,0.830218
178,403,3.82431,-0.0650485,0.237588,0.815746
186,397,3.82439,-0.0659051,0.235224,0.808926
194,391,3.82214,-0.0665748,0.233443,0.803191
206,385,3.82287,-0.0613092,0.243784,0.835173
212,379,3.82363,-0.0618529,0.240738,0.832352
218,373,3.82256,-0.0641421,0.241202,0.828102
227,367,3.82135,-0.0656554,0.235066,0.810378
233,361,3.82568,-0.0639285,0.23394,0.811272
242,355,3.8241,-0.068784,0.232424,0.793767
248,349,3.82044,-0.0671333,0.230299,0.795514
258,343,3.82422,-0.0688434,0.23363,0.797159
264,337,3.82525,-0.066746,0.232842,0.799838
270,331,3.823,-0.0695006,0.22965,0.785339
277,325,3.82282,-0.0697773,0.228021,0.778154
284,319,3.82604,-0.0645296,0.224466,0.778509
291,313,3.82304,-0.0681774,0.225471,0.774157
297,307,3.82648,-0.0676985,0.227713,0.779151
313,301,3.82527,-0.0610997,0.236555,0.818789
319,295,3.82335,-0.0650292,0.237541,0.812611
333,289,3.82954,-0.0680352,0.231971,0.792159
339,283,3.82576,-0.0645616,0.232317,0.800825
346,277,3.82678,-0.0635641,0.230814,0.79634
356,271,3.82402,-0.0633309,0.228459,0.79019
367,265,3.81807,-0.335112,0.305835,0.495921
376,259,3.82545,-0.0707742,0.226185,0.771278
384,253,3.82608,-0.0701327,0.223882,0.765033
391,247,3.82588,-0.0731708,0.224766,0.766264
397,241,3.82666,-0.0696034,0.224245,0.764942
403,235,3.8228,-0.0689085,0.229204,0.771193
409,229,3.82405,-0.0709663,0.228069,0.773486
415,223,3.82699,-0.0669304,0.225141,0.772469
422,217,3.82515,-0.0667049,0.222908,0.768054
428,211,3.82567,-0.0698862,0.225877,0.76804
434,205,3.8281,-0.0716432,0.224789,0.760613
440,199,3.82436,-0.0723362,0.222259,0.754326
447,193,3.82585,-0.0722061,0.221549,0.75466
453,187,3.8254,-0.0712503,0.223784,0.759634
459,181,3.82556,-0.0695451,0.224243,0.7623
465,175,3.82668,-0.0633953,0.220249,0.763841
475,169,3.82595,-0.0727285,0.220574,0.74738
481,163,3.82664,-0.0724237,0.220237,0.747138
487,157,3.82639,-0.0707737,0.218573,0.743213
493,151,3.82256,-0.0719429,0.225178,0.754043
500,145,3.82611,-0.0703169,0.222034,0.755343
507,139,3.82587,-0.0681949,0.221517,0.758495
514,133,3.82755,-0.0684041,0.221216,0.75707
520,127,3.82712,-0.0691923,0.223658,0.762432
526,121,3.82596,-0.0698028,0.221838,0.755235
532,115,3.8271,-0.0686184,0.221053,0.755953
538,109,3.82734,-0.068247,0.219512,0.750706
549,103,3.82818,-0.0721133,0.217619,0.742276
557,97,3.8257,-0.0742295,0.215703,0.732705
564,91,3.82562,-0.0737157,0.214265,0.728722
575,85,3.82711,-0.0740022,0.215952,0.732605
581,79,3.83049,-0.0690243,0.212928,0.732297
587,73,3.82725,-0.0724126,0.214953,0.727717
595,67,3.82708,-0.0731114,0.216582,0.733874
601,61,3.82543,-0.0739039,0.216969,0.731909
607,55,3.82938,-0.0694988,0.211525,0.725694
614,49,3.82736,-0.0743261,0.212234,0.720016
620,43,3.82589,-0.0776371,0.211112,0.711242
626,37,3.82643,-0.0775864,0.209423,0.705185
632,31,3.82853,-0.0780306,0.208223,0.704811
638,25,3.82651,-0.0770425,0.208874,0.704579
644,19,3.82841,-0.077875,0.210988,0.711909
653,13,3.82678,-0.0780505,0.20954,0.705795
659,7,3.82924,-0.0764738,0.206061,0.701594
665,1,3.82651,-0.0785231,0.206938,0.698546
674,0,3.82686,-0.078424,0.209202,0.703318
681,0,3.82818,-0.0764009,0.208216,0.70562
687,0,3.82881,-0.079084,0.203304,0.691038
695,0,3.82863,-0.0769378,0.204656,0.695903
701,0,3.82968,-0.0769447,0.203856,0.693607
709,0,3.83006,-0.0755078,0.204,0.690179
715,0,3.82825,-0.0799346,0.203167,0.68326
721,0,3.82837,-0.0777626,0.201566,0.679914
727,0,3.82589,-0.0812032,0.201719,0.678112
733,0,3.82604,-0.0813906,0.20014,0.670716
740,0,3.8263,-0.0806601,0.199535,0.670968
746,0,3.82656,-0.0818737,0.198246,0.664609
753,0,3.82827,-0.0797255,0.195936,0.660851
759,0,3.88084,0.0178189,0.173814,0.706379
765,0,3.82765,-0.0847314,0.201836,0.67876
772,0,3.82721,-0.0846095,0.198888,0.669857
778,0,3.82633,-0.0806192,0.198016,0.664841
784,0,3.82798,-0.0801197,0.196983,0.663797
790,0,3.82777,-0.0797264,0.19712,0.666376
796,0,3.82818,-0.0808802,0.195272,0.660433
803,0,3.82537,-0.0857855,0.196934,0.655197
809,0,3.82838,-0.0781904,0.196969,0.666481
816,0,3.82747,-0.077514,0.197138,0.668554
822,0,3.82721,-0.0807705,0.195809,0.659574
829,0,3.82586,-0.0846673,0.194477,0.650693
835,0,3.8256,-0.0833282,0.194478,0.649885
841,0,3.82523,-0.0838024,0.194406,0.649881
847,0,3.82778,-0.0816172,0.191801,0.645739
853,0,3.82733,-0.0875993,0.193106,0.640742
859,0,3.82713,-0.0808907,0.193744,0.652752
865,0,3.82829,-0.0837687,0.193932,0.649402
871,0,3.82806,-0.0843856,0.192675,0.643243
877,0,3.8283,-0.0815112,0.191503,0.645412
883,0,3.82596,-0.0884813,0.191854,0.643494
890,0,3.82721,-0.0823332,0.188859,0.63862
896,0,3.82673,-0.0818287,0.18986,0.637586
902,0,3.82365,-0.0906654,0.19022,0.630228
911,0,3.82609,-0.0829981,0.190973,0.639925
917,0,3.82415,-0.0844566,0.195392,0.643459
923,0,3.82811,-0.0883607,0.190172,0.632739
929,0,3.82455,-0.0882076,0.190636,0.632297
935,0,3.82481,-0.0859817,0.190602,0.635117
941,0,3.82735,-0.0839472,0.188319,0.628173
947,0,3.82591,-0.0873706,0.186364,0.62205
953,0,3.82386,-0.0931853,0.187,0.615854
960,0,3.82776,-0.0843067,0.185685,0.62461
966,0,3.82422,-0.0910374,0.186868,0.618493
972,0,3.82781,-0.0861538,0.184469,0.617328
978,0,3.82365,-0.0880389,0.185173,0.613393
984,0,3.82282,-0.0882796,0.184794,0.613049
995,0,3.82644,-0.0807914,0.185145,0.62097
1002,0,3.82853,-0.0830275,0.183179,0.616006
1008,0,3.82387,-0.0890599,0.183358,0.604371
1014,0,3.82433,-0.0880372,0.179719,0.59821
1020,0,3.82392,-0.0882776,0.180565,0.600729
1026,0,3.82536,-0.0889284,0.178204,0.594179
1032,0,3.8229,-0.089678,0.177019,0.58719
1039,0,3.8257,-0.089375,0.17498,0.587291
1045,0,3.82382,-0.0857838,0.184068,0.612318
1051,0,3.82641,-0.0838551,0.181626,0.609292
1057,0,3.8242,-0.0905264,0.181697,0.604585
1063,0,3.82604,-0.0867909,0.177027,0.596322
1069,0,3.82712,-0.0887875,0.174996,0.593668
1075,0,3.82612,-0.0890279,0.174312,0.586294
1081,0,3.82377,-0.0901662,0.176112,0.586676
1087,0,3.82548,-0.0878063,0.173784,0.581742
1094,0,3.8282,-0.0860557,0.174755,0.588949
1101,0,3.82606,-0.0874548,0.17393,0.581102
1107,0,3.82834,-0.0889553,0.170603,0.573689
1127,0,3.8267,-0.0928405,0.174729,0.572423
1134,0,3.82606,-0.0930649,0.168618,0.561852
1140,0,3.8268,-0.0871391,0.165812,0.552463
1146,0,3.82434,-0.0949736,0.16676,0.547478
1152,0,3.82253,-0.0974178,0.164474,0.537565
1158,0,3.82556,-0.0929481,0.162797,0.534585
1164,0,3.82632,-0.0936856,0.162076,0.535173
1178,0,3.82667,-0.0837151,0.169643,0.570778
1184,0,3.82523,-0.087859,0.166147,0.554107
1192,0,3.82561,-0.0886232,0.16428,0.547541
1198,0,3.82441,-0.0905913,0.162236,0.540987
1204,0,3.82509,-0.0970503,0.160734,0.534668
1210,0,3.82442,-0.0976547,0.159645,0.526481
1217,0,3.82361,-0.0981531,0.158571,0.527031
1223,0,3.82225,-0.101527,0.162038,0.523424
1229,0,3.82643,-0.0973971,0.158176,0.521031
1235,0,3.8246,-0.0942617,0.158404,0.522853
1245,0,3.82761,-0.0907219,0.157583,0.526397
1251,0,3.82323,-0.0989062,0.157966,0.519139
1257,0,3.82237,-0.0972884,0.157182,0.515366
1263,0,3.8204,-0.10151,0.158145,0.512823
1270,0,3.82208,-0.0973571,0.157282,0.515377
1276,0,3.82335,-0.0935417,0.156459,0.517451
1282,0,3.82661,-0.0933992,0.15512,0.517397
1291,0,3.82401,-0.0919164,0.157274,0.529579
1297,0,3.8283,-0.0868966,0.154884,0.521678
1303,0,3.82338,-0.0969452,0.154967,0.508903
1309,0,3.82306,-0.0963945,0.153984,0.509019
1315,0,3.82383,-0.0947189,0.152621,0.50414
1322,0,3.82126,-0.100339,0.153759,0.500529
1328,0,3.82663,-0.0923828,0.14957,0.49966
1335,0,3.82384,-0.099523,0.155475,0.511562
1351,0,3.82375,-0.098091,0.162397,0.524927
1357,0,3.82908,-0.0872601,0.162363,0.545133
1363,0,3.83017,-0.0818758,0.16263,0.549773
1382,0,3.82712,-0.0817313,0.156001,0.53809
1392,0,3.82554,-0.0892054,0.160892,0.535778
1399,0,3.83052,-0.081558,0.15886,0.538769
1405,0,3.83046,-0.0804069,0.15872,0.537258
1418,0,3.8245,-0.0790961,0.147455,0.507421
1427,0,3.82288,-0.0802641,0.146185,0.500195
1433,0,3.82414,-0.102486,0.149833,0.483956
1442,0,3.82017,-0.104083,0.148046,0.476221
1463,0,3.83285,-0.139023,0.16071,0.477067
1478,0,3.83138,-0.0789704,0.140491,0.49212
1484,0,3.82391,-0.0956046,0.141989,0.469632
1497,0,3.82721,-0.0820849,0.137253,0.473504
1519,0,3.82847,-0.0807116,0.138361,0.478765
1526,0,3.82364,-0.101775,0.1414,0.45844
1538,0,3.82843,-0.0802468,0.131482,0.458491
1548,0,3.82567,-0.0841333,0.131024,0.450813
1564,0,3.82223,-0.0914118,0.137127,0.463813
1573,0,3.82352,-0.0936407,0.133536,0.44433
1592,0,3.82139,-0.0848246,0.134081,0.456544
1604,0,3.8199,-0.100143,0.132101,0.433996
1618,0,3.81745,-0.10696,0.126508,0.408838
1631,0,3.82306,-0.0993562,0.127865,0.420247
1639,0,3.82501,-0.0820084,0.124335,0.430769
1648,0,3.82392,-0.0913109,0.124376,0.418403
1657,0,3.82033,-0.096611,0.125295,0.415021
1668,0,3.82584,-0.0897395,0.128933,0.43142
1674,0,3.82442,-0.0887232,0.129036,0.4323
1680,0,3.82492,-0.0885709,0.129049,0.432238
1686,0,3.8202,-0.0960471,0.119164,0.393827
1712,0,3.81673,-0.102117,0.115405,0.377582
1718,0,3.8173,-0.0976725,0.11732,0.384722
1724,0,3.82045,-0.095019,0.116099,0.388901
1730,0,3.81775,-0.0953844,0.116938,0.388926
1736,0,3.81761,-0.0972735,0.103485,0.34747

File: CALCE_CX2_35_cycle_feature_matrix.csv
cycle_number,rul,voltage,current,capacity,charge_capacity
6,740,3.819,-0.0324221,0.358296,0.999249
13,733,3.82148,-0.0326978,0.355481,0.991115
20,726,3.82213,-0.0329208,0.356787,0.989472
27,719,3.82291,-0.0305673,0.355295,0.99149
37,712,3.81816,-0.0308767,0.351126,0.98193
44,705,3.82098,-0.0342583,0.351976,0.972618
52,698,3.82429,-0.0314691,0.349783,0.977305
65,691,3.82265,-0.0334446,0.348465,0.970217
72,684,3.82233,-0.0341252,0.34704,0.966011
81,677,3.82256,-0.0344862,0.345643,0.962016
89,670,3.82321,-0.0342571,0.34696,0.961545
99,663,3.82729,-0.0363716,0.346325,0.955679
106,656,3.81922,-0.0327163,0.342071,0.955264
113,649,3.82406,-0.0339275,0.345547,0.95644
120,642,3.8231,-0.0338092,0.346891,0.958715
128,635,3.82261,-0.0350552,0.341358,0.948529
137,628,3.82635,-0.0359148,0.343573,0.946872
146,621,3.82485,-0.0309019,0.345472,0.965969
155,614,3.82511,-0.0310199,0.344073,0.959259
163,607,3.82237,-0.0357455,0.34206,0.944442
170,600,3.82302,-0.0358897,0.339313,0.93739
177,593,3.82509,-0.0345434,0.341374,0.943601
186,586,3.82456,-0.0336712,0.339202,0.94242
193,579,3.82623,-0.0323652,0.338477,0.942572
200,572,3.8251,-0.0345067,0.338506,0.936967
207,565,3.82276,-0.0370358,0.333721,0.922379
214,558,3.82169,-0.0370275,0.333651,0.920958
222,551,3.82448,-0.0364068,0.335046,0.923443
229,544,3.8246,-0.0348897,0.335666,0.92833
237,537,3.82168,-0.0375261,0.333688,0.921827
245,530,3.82398,-0.0374611,0.335,0.919927
252,523,3.82067,-0.0349063,0.328056,0.914783
260,516,3.82438,-0.0353375,0.332931,0.920897
267,509,3.82589,-0.0338337,0.332231,0.921923
275,502,3.82458,-0.0378251,0.328167,0.90465
284,495,3.82257,-0.0364943,0.328869,0.914774
292,488,3.826,-0.034463,0.329478,0.915158
300,481,3.8251,-0.0363346,0.331543,0.915506
307,474,3.82596,-0.0353462,0.331523,0.916059
315,467,3.82326,-0.0355236,0.328735,0.909207
322,460,3.82578,-0.0336706,0.330759,0.916513
329,453,3.82663,-0.0326989,0.330066,0.918591
336,446,3.82572,-0.0341532,0.329372,0.912816
343,439,3.8256,-0.0357366,0.327369,0.90357
350,432,3.82716,-0.0337767,0.325904,0.906405
358,425,3.82429,-0.0356162,0.33003,0.908792
365,418,3.82511,-0.0346261,0.329335,0.910597
372,411,3.82684,-0.0342186,0.326555,0.904708
379,404,3.82636,-0.0373142,0.329339,0.903458
386,397,3.82501,-0.0344297,0.327866,0.906289
401,390,3.82449,-0.0353109,0.323829,0.900107
412,383,3.82421,-0.0376863,0.320361,0.8851
421,376,3.82586,-0.0409486,0.325249,0.883966
428,369,3.8249,-0.0346677,0.320971,0.889814
435,362,3.82583,-0.0364635,0.323063,0.89008
442,355,3.82638,-0.0349006,0.32233,0.893314
449,348,3.82917,-0.0375439,0.321651,0.884876
456,341,3.82375,-0.0343963,0.318775,0.885812
464,334,3.82616,-0.0390859,0.320983,0.881425
471,327,3.82666,-0.0357299,0.319537,0.88422
479,320,3.82493,-0.036751,0.321627,0.885242
490,313,3.82429,-0.0393519,0.316795,0.869903
497,306,3.82594,-0.0380465,0.316092,0.870503
504,299,3.82703,-0.0381334,0.317428,0.873236
514,292,3.82751,-0.0358115,0.322337,0.890846
521,285,3.82604,-0.0350212,0.322306,0.891123
532,278,3.82714,-0.0411471,0.317551,0.868983
541,271,3.82309,-0.0391672,0.312629,0.859473
552,264,3.82565,-0.0383632,0.313271,0.862613
559,257,3.82617,-0.0363414,0.312516,0.865291
566,250,3.82547,-0.0367266,0.312489,0.865361
575,243,3.8239,-0.0363128,0.313918,0.872206
582,236,3.8228,-0.0387679,0.310487,0.856807
589,229,3.82392,-0.0400328,0.308442,0.849162
596,222,3.82275,-0.0400955,0.308397,0.847543
604,215,3.82407,-0.0390285,0.307734,0.849249
611,208,3.82316,-0.0411033,0.307006,0.842491
618,201,3.8217,-0.0426493,0.306356,0.837275
629,194,3.82303,-0.0416263,0.309253,0.846613
636,187,3.82426,-0.0388096,0.30632,0.845795
644,180,3.82208,-0.0413394,0.304301,0.838104
651,173,3.82133,-0.0420788,0.303604,0.832193
659,166,3.82117,-0.0432436,0.300847,0.824664
667,159,3.8217,-0.043011,0.300838,0.823839
674,152,3.82151,-0.0448947,0.300194,0.818394
681,145,3.82128,-0.0430312,0.2981,0.816388
688,138,3.82139,-0.0432485,0.297904,0.815756
701,131,3.82119,-0.0432858,0.299455,0.821231
709,124,3.82008,-0.0452131,0.298563,0.814791
716,117,3.82447,-0.0416833,0.297297,0.817507
723,110,3.82104,-0.0435367,0.297982,0.815097
730,103,3.82127,-0.0436877,0.296612,0.811087
737,96,3.82238,-0.042081,0.295854,0.811951
747,89,3.82035,-0.0428548,0.298008,0.817367
754,82,3.8233,-0.0432362,0.295288,0.808432
762,75,3.79386,-0.276577,0.390343,0.440762
769,68,3.82218,-0.041929,0.291742,0.803858
776,61,3.82343,-0.0418261,0.291737,0.803162
783,54,3.82125,-0.0441228,0.291081,0.79561
790,47,3.82127,-0.043728,0.292395,0.799429
797,40,3.82057,-0.0441575,0.289714,0.790901
804,33,3.81991,-0.0445472,0.289683,0.791523
811,26,3.82014,-0.0442324,0.289673,0.790856
822,19,3.82204,-0.0426151,0.287573,0.792718
829,12,3.82097,-0.0436837,0.28965,0.791188
836,5,3.82068,-0.0445811,0.289614,0.791637
843,0,3.82065,-0.0451499,0.286865,0.784056
851,0,3.81927,-0.045039,0.285525,0.780415
858,0,3.82043,-0.0431501,0.283329,0.777718
866,0,3.82211,-0.0404674,0.289566,0.800917
873,0,3.82141,-0.0442793,0.289647,0.791108
880,0,3.82315,-0.0428179,0.287536,0.78894
888,0,3.82034,-0.0432736,0.284736,0.784264
895,0,3.82166,-0.0434409,0.28337,0.77967
902,0,3.8206,-0.0458271,0.282786,0.772447
909,0,3.82154,-0.0460271,0.284123,0.775639
916,0,3.82288,-0.0415045,0.285468,0.788588
923,0,3.82214,-0.0449797,0.288294,0.786665
930,0,3.82285,-0.0415767,0.284069,0.781922
937,0,3.82185,-0.0435825,0.28338,0.778363
944,0,3.82279,-0.0422218,0.281272,0.776533
951,0,3.82026,-0.0438747,0.281987,0.773061
958,0,3.82275,-0.0422225,0.279851,0.770521
965,0,3.82148,-0.0418168,0.281863,0.777537
973,0,3.82229,-0.0420153,0.281255,0.775941
980,0,3.82299,-0.0418402,0.279865,0.770932
988,0,3.82233,-0.0425543,0.279508,0.770112
995,0,3.82025,-0.0446431,0.279173,0.76431
1002,0,3.82031,-0.0443899,0.277817,0.760288
1009,0,3.8202,-0.0445624,0.276436,0.757065
1016,0,3.82136,-0.0436468,0.274308,0.756883
1024,0,3.81846,-0.0444379,0.276427,0.758988
1031,0,3.81955,-0.0446682,0.273658,0.750661
1038,0,3.81936,-0.0452209,0.273649,0.750038
1046,0,3.81803,-0.0452629,0.272237,0.749115
1053,0,3.81846,-0.0455918,0.270857,0.742768
1060,0,3.81927,-0.0438854,0.26855,0.739404
1067,0,3.81704,-0.0457723,0.269451,0.735952
1075,0,3.82061,-0.0447274,0.272253,0.746201
1083,0,3.81784,-0.0441745,0.270102,0.74556
1093,0,3.81919,-0.0433674,0.268701,0.741297
1100,0,3.8181,-0.0460946,0.268074,0.732644
1107,0,3.81776,-0.046236,0.266675,0.730444
1114,0,3.81456,-0.0478971,0.267409,0.726348
1121,0,3.81661,-0.0463832,0.266652,0.728967
1128,0,3.81585,-0.0464996,0.265284,0.726714
1135,0,3.81587,-0.0487184,0.264637,0.72169
1144,0,3.81525,-0.0462942,0.266664,0.730953
1151,0,3.81583,-0.0463243,0.263894,0.723195
1159,0,3.81887,-0.0449829,0.263175,0.723581
1166,0,3.81786,-0.0448051,0.261752,0.720436
1173,0,3.81608,-0.0456427,0.258966,0.71023
1180,0,3.81616,-0.0493371,0.258352,0.70835
1187,0,3.81244,-0.0499309,0.259795,0.707364
1196,0,3.81526,-0.0423956,0.263774,0.730471
1205,0,3.82225,-0.0426413,0.270348,0.745924
1228,0,3.82115,-0.0445786,0.270142,0.741817
1235,0,3.82213,-0.0407043,0.27149,0.751934
1245,0,3.8196,-0.0486879,0.266084,0.721664
1255,0,3.81703,-0.0474061,0.261096,0.719111
1264,0,3.81327,-0.0493382,0.261836,0.710291
1275,0,3.82139,-0.0433264,0.265218,0.730641
1285,0,3.81852,-0.0379852,0.26024,0.731817
1295,0,3.81662,-0.0479426,0.259732,0.708326
1305,0,3.8158,-0.0486348,0.259769,0.706214
1317,0,3.81734,-0.0472953,0.263871,0.720797
1324,0,3.81796,-0.0447531,0.264544,0.724782
1335,0,3.81501,-0.0416764,0.256054,0.711273
1346,0,3.82068,-0.0450864,0.260359,0.713047
1358,0,3.81956,-0.0441224,0.256748,0.706973
1366,0,3.81582,-0.046075,0.254782,0.697282
1375,0,3.8155,-0.0444543,0.25296,0.701623
1386,0,3.81769,-0.0458157,0.257629,0.705187
1399,0,3.81768,-0.0505236,0.256302,0.69297
1410,0,3.81725,-0.0444127,0.252586,0.698341
1419,0,3.81645,-0.0479587,0.256881,0.699143
1427,0,3.81898,-0.0432795,0.258251,0.712058
1442,0,3.8123,-0.0492088,0.249875,0.682081
1453,0,3.825,-0.0856626,0.265213,0.652281
1465,0,3.81195,-0.0513597,0.25065,0.678697
1480,0,3.80899,-0.0457753,0.245629,0.678921
1492,0,3.81221,-0.0510469,0.249283,0.672035
1505,0,3.81178,-0.0434232,0.246325,0.686133
1529,0,3.80718,-0.0556173,0.241639,0.648305
1539,0,3.80613,-0.0602861,0.243166,0.642863
1551,0,3.8092,-0.0555725,0.244465,0.65633
1577,0,3.8027,-0.0518289,0.229522,0.631608
1592,0,3.80698,-0.0586844,0.233204,0.623812
1610,0,3.80289,-0.0534248,0.224978,0.614079
1623,0,3.80015,-0.0656861,0.224424,0.599086
1636,0,3.80369,-0.0579212,0.231756,0.618488
1653,0,3.80098,-0.0544372,0.221061,0.602909
1663,0,3.79538,-0.0657853,0.215662,0.577331
1681,0,3.79086,-0.0857194,0.210384,0.526543
1694,0,3.79121,-0.0712724,0.214338,0.552537
1711,0,3.78326,-0.0761413,0.196792,0.509409
1718,0,3.78088,-0.0802236,0.187702,0.48598
1725,0,3.78485,-0.0765932,0.18706,0.486569
1732,0,3.77944,-0.0857664,0.186074,0.475351
1740,0,3.78244,-0.0802009,0.178565,0.467248
1749,0,3.77299,-0.0837452,0.176449,0.449129
1756,0,3.76715,-0.0951638,0.174822,0.4366
1763,0,3.76952,-0.0904057,0.170706,0.433367
1771,0,3.77387,-0.090243,0.159542,0.406263
1778,0,3.77044,-0.0955134,0.156134,0.395079
1793,0,3.76999,-0.0908216,0.161362,0.404433
1800,0,3.77124,-0.0917745,0.16133,0.40077
1807,0,3.77275,-0.0915337,0.156833,0.396888
1814,0,3.76394,-0.0971295,0.153891,0.385854