Folder: MyBatteryML/calce_correlation_analysis/matrices (part 7)

File: CALCE_CX2_38_cycle_feature_matrix.csv
cycle_number,rul,voltage,current,capacity,charge_capacity
6,591,3.8239,-0.0464696,0.250194,0.904096
13,584,3.82331,-0.0525044,0.248858,0.890038
21,577,3.8264,-0.0572049,0.248085,0.87763
28,570,3.82866,-0.0500126,0.247198,0.884712
35,563,3.82656,-0.0504213,0.247765,0.88162
42,556,3.82657,-0.0546342,0.244388,0.867008
52,549,3.8262,-0.0534706,0.244515,0.865488
66,542,3.82752,-0.0564692,0.243194,0.860233
73,535,3.82898,-0.0535257,0.237874,0.850475
80,528,3.82633,-0.0598097,0.240146,0.847566
87,521,3.82534,-0.0587915,0.23972,0.84281
95,514,3.82971,-0.0608011,0.237098,0.834388
102,507,3.82721,-0.0586008,0.23712,0.836029
109,500,3.82888,-0.0591735,0.235133,0.829441
117,493,3.83093,-0.0662924,0.237741,0.820545
124,486,3.83006,-0.0552876,0.236975,0.836309
131,479,3.82997,-0.0537896,0.236451,0.838354
140,472,3.8275,-0.0502334,0.230945,0.829293
153,465,3.82842,-0.0595049,0.237536,0.83154
161,458,3.82513,-0.0618632,0.238597,0.827189
168,451,3.82832,-0.0565177,0.235156,0.827566
175,444,3.82232,-0.0567838,0.232207,0.822278
182,437,3.82489,-0.0553746,0.228628,0.812855
189,430,3.82398,-0.0612289,0.230558,0.811171
200,423,3.83198,-0.0621289,0.236447,0.821689
208,416,3.82896,-0.0567864,0.233796,0.827069
215,409,3.82877,-0.0569207,0.233537,0.826385
222,402,3.8294,-0.0575188,0.228901,0.808473
229,395,3.82678,-0.0599159,0.22919,0.805437
236,388,3.82811,-0.0625899,0.228224,0.796019
244,381,3.84092,-0.0760162,0.232396,0.789704
256,374,3.82914,-0.064468,0.229116,0.800766
266,367,3.83102,-0.0631844,0.22982,0.801091
274,360,3.83088,-0.0603431,0.227162,0.798071
281,353,3.83127,-0.0564161,0.226796,0.801936
288,346,3.82571,-0.058141,0.231976,0.805983
297,339,3.82931,-0.0624085,0.223017,0.783608
305,332,3.83946,-0.0833629,0.232548,0.768671
315,325,3.83021,-0.0630732,0.22619,0.788531
322,318,3.83039,-0.0589047,0.225339,0.791903
329,311,3.82926,-0.0586938,0.225505,0.791221
336,304,3.82945,-0.0638558,0.224546,0.779852
343,297,3.83148,-0.0633271,0.222047,0.773627
351,290,3.82773,-0.0661164,0.224189,0.776826
361,283,3.82996,-0.0615814,0.224225,0.783241
368,276,3.83049,-0.0594935,0.223008,0.784736
375,269,3.8265,-0.0667067,0.221508,0.764197
383,262,3.82943,-0.0628984,0.218015,0.762662
391,255,3.82908,-0.0651346,0.217857,0.759761
400,248,3.83296,-0.0672912,0.220005,0.757142
411,241,3.82926,-0.0656716,0.224932,0.777861
418,234,3.83068,-0.0619042,0.221892,0.775723
425,227,3.8309,-0.0622208,0.21921,0.768337
432,220,3.83018,-0.0621926,0.219773,0.767663
439,213,3.83044,-0.0596056,0.221022,0.775147
446,206,3.83059,-0.0584356,0.220918,0.777879
456,199,3.83007,-0.0619584,0.221963,0.775626
464,192,3.82953,-0.0603497,0.219601,0.770102
471,185,3.83103,-0.0607244,0.218006,0.762208
480,178,3.82885,-0.0648709,0.220835,0.765037
487,171,3.83153,-0.0586472,0.219099,0.770741
494,164,3.83182,-0.0588506,0.219294,0.770917
502,157,3.82923,-0.0698397,0.221467,0.758157
510,150,3.8285,-0.0585981,0.217079,0.765209
517,143,3.82793,-0.0586456,0.215887,0.762236
531,136,3.8298,-0.067782,0.217285,0.753075
538,129,3.82961,-0.0613365,0.217655,0.760299
545,122,3.83028,-0.0615163,0.217341,0.76002
557,115,3.83134,-0.0753751,0.216621,0.736265
569,108,3.83189,-0.0564421,0.210152,0.7479
578,101,3.82938,-0.0653911,0.212712,0.734764
586,94,3.83129,-0.0656799,0.210552,0.73192
593,87,3.83215,-0.0638376,0.209977,0.733906
600,80,3.82991,-0.0649727,0.212832,0.73721
607,73,3.82895,-0.0665207,0.213946,0.741276
615,66,3.82974,-0.0665666,0.2104,0.732089
622,59,3.8314,-0.0674325,0.208214,0.724016
629,52,3.83148,-0.0676547,0.208009,0.72397
637,45,3.83275,-0.063005,0.205697,0.724378
644,38,3.83231,-0.0678396,0.206718,0.71718
652,31,3.83081,-0.0666583,0.210236,0.729141
659,24,3.83237,-0.0644496,0.209997,0.73153
669,17,3.83073,-0.0595232,0.202974,0.717526
677,10,3.83137,-0.0629941,0.203366,0.715822
684,3,3.83375,-0.0618734,0.201687,0.719791
691,0,3.83396,-0.0656368,0.20596,0.718089
698,0,3.83151,-0.0674796,0.208639,0.721541
705,0,3.83264,-0.0628318,0.207483,0.725672
712,0,3.83147,-0.0633403,0.207852,0.724247
719,0,3.83097,-0.0627541,0.207214,0.727295
726,0,3.83068,-0.0609826,0.20734,0.726513
734,0,3.83086,-0.0595108,0.205186,0.72228
747,0,3.83226,-0.0675425,0.200527,0.698843
759,0,3.83139,-0.0677615,0.197352,0.693032
769,0,3.83492,-0.0693581,0.199153,0.688012
776,0,3.83081,-0.0701142,0.201266,0.694448
783,0,3.83352,-0.0673824,0.199068,0.690802
790,0,3.833,-0.0672473,0.200648,0.698442
798,0,3.83206,-0.0683838,0.200271,0.694654
808,0,3.83124,-0.0707623,0.19728,0.682029
815,0,3.83309,-0.0717464,0.193816,0.675097
822,0,3.83228,-0.0717865,0.19339,0.669892
829,0,3.83171,-0.0716891,0.193576,0.668204
836,0,3.83207,-0.0741989,0.191594,0.664596
846,0,3.83274,-0.0722928,0.193097,0.669946
853,0,3.83303,-0.0693544,0.190273,0.664595
860,0,3.82825,-0.0803032,0.194779,0.661328
870,0,3.83319,-0.0722389,0.192018,0.661149
878,0,3.83374,-0.0686704,0.190653,0.66252
885,0,3.83328,-0.0715639,0.185909,0.644179
892,0,3.83439,-0.0745181,0.188028,0.649044
899,0,3.83406,-0.0737696,0.18488,0.641576
909,0,3.83231,-0.0771622,0.188076,0.643633
916,0,3.83326,-0.0735403,0.185691,0.639373
923,0,3.83399,-0.0730652,0.183362,0.635459
930,0,3.83327,-0.0788456,0.182701,0.623588
938,0,3.83146,-0.0818983,0.183779,0.620827
945,0,3.83187,-0.0832817,0.180929,0.614663
953,0,3.83065,-0.0861928,0.181023,0.611794
969,0,3.83085,-0.0811623,0.182869,0.62557
976,0,3.83099,-0.0819161,0.181593,0.615157
983,0,3.83313,-0.079768,0.181017,0.61813
990,0,3.83127,-0.0798971,0.180553,0.61537
997,0,3.83078,-0.0832016,0.179449,0.607902
1006,0,3.83041,-0.0777625,0.182951,0.625132
1014,0,3.83361,-0.0774808,0.179895,0.618287
1022,0,3.83056,-0.0838099,0.179357,0.60833
1029,0,3.82984,-0.0844777,0.178087,0.601132
1036,0,3.8317,-0.085281,0.177077,0.601694
1043,0,3.83083,-0.086127,0.175864,0.594934
1050,0,3.82997,-0.0899839,0.174834,0.586025
1060,0,3.82743,-0.0881602,0.178451,0.599847
1069,0,3.83176,-0.088506,0.176081,0.598
1076,0,3.82884,-0.0847662,0.176254,0.593859
1083,0,3.82775,-0.0868029,0.174395,0.588489
1090,0,3.83033,-0.0845541,0.171733,0.584512
1097,0,3.83,-0.0842162,0.17034,0.583191
1110,0,3.83024,-0.0836488,0.173808,0.591247
1117,0,3.8287,-0.0853138,0.172889,0.587963
1124,0,3.82567,-0.0830918,0.175563,0.590162
1131,0,3.8301,-0.0840229,0.171833,0.583394
1138,0,3.8295,-0.084133,0.171667,0.583508
1145,0,3.82737,-0.0886764,0.170534,0.5749
1152,0,3.82507,-0.0923942,0.170034,0.571728
1161,0,3.8278,-0.0898758,0.167952,0.569003
1168,0,3.82976,-0.0862768,0.166926,0.570391
1175,0,3.82688,-0.090105,0.167871,0.56769
1182,0,3.8275,-0.0873169,0.166427,0.562683
1189,0,3.82755,-0.0879802,0.166191,0.561468
1196,0,3.82509,-0.0915793,0.16473,0.55181
1210,0,3.82559,-0.0841864,0.16887,0.566999
1217,0,3.82958,-0.0849218,0.164228,0.563154
1224,0,3.82549,-0.0922114,0.162969,0.552226
1231,0,3.82567,-0.0883537,0.163161,0.55223
1238,0,3.82645,-0.0970896,0.162868,0.544251
1245,0,3.82472,-0.0985768,0.159323,0.535629
1253,0,3.82296,-0.101467,0.161396,0.533595
1262,0,3.82965,-0.0860668,0.161472,0.549836
1269,0,3.8281,-0.0904594,0.160759,0.547392
1277,0,3.83038,-0.0910231,0.157936,0.545158
1284,0,3.82495,-0.091681,0.158251,0.533205
1291,0,3.8234,-0.0950963,0.159127,0.530496
1298,0,3.82254,-0.0987552,0.158142,0.528195
1313,0,3.82388,-0.0891322,0.157727,0.537499
1320,0,3.82581,-0.090109,0.155885,0.528391
1328,0,3.82421,-0.0934287,0.156193,0.525566
1339,0,3.82424,-0.0902315,0.157083,0.533059
1346,0,3.82479,-0.0954696,0.153965,0.519884
1354,0,3.81947,-0.0976822,0.154859,0.517129
1361,0,3.82533,-0.0934272,0.148724,0.507617
1368,0,3.8194,-0.103674,0.151681,0.505913
1375,0,3.82167,-0.0954087,0.149686,0.505006
1385,0,3.82393,-0.0895648,0.150832,0.512958
1392,0,3.82226,-0.0992206,0.148327,0.503823
1404,0,3.82608,-0.0898481,0.144681,0.50063
1411,0,3.82057,-0.0982682,0.143663,0.484227
1418,0,3.82005,-0.0971209,0.142087,0.480552
1425,0,3.8183,-0.103963,0.14208,0.473699
1432,0,3.81458,-0.103081,0.141893,0.471552
1440,0,3.81444,-0.104174,0.140113,0.465511
1448,0,3.82085,-0.100123,0.135921,0.465408
1458,0,3.81616,-0.105218,0.138222,0.463109
1465,0,3.81567,-0.107172,0.135815,0.454523
1472,0,3.81269,-0.108878,0.134838,0.447348
1479,0,3.81957,-0.0997491,0.132355,0.449634
1487,0,3.81612,-0.106382,0.133936,0.445341
1494,0,3.81442,-0.111421,0.133613,0.44284
1502,0,3.8157,-0.0998306,0.131585,0.44395
1509,0,3.80782,-0.110676,0.134122,0.439087
1517,0,3.80483,-0.114204,0.131882,0.424551
1524,0,3.80949,-0.117422,0.126827,0.418756
1531,0,3.80997,-0.111197,0.125799,0.417031
1538,0,3.8161,-0.103319,0.122433,0.414863
1545,0,3.81539,-0.105881,0.123012,0.414619
1565,0,3.81839,-0.103566,0.128902,0.435065
1572,0,3.8163,-0.099783,0.133902,0.450196
1580,0,3.81368,-0.103182,0.137344,0.455527
1592,0,3.81589,-0.0894194,0.120687,0.41728
1606,0,3.81941,-0.0993156,0.122959,0.416202
1613,0,3.81713,-0.10389,0.125637,0.42061
1620,0,3.81638,-0.101828,0.125991,0.420484
1635,0,3.81031,-0.110127,0.11012,0.374905
1644,0,3.81118,-0.102043,0.110167,0.372545
1655,0,3.81626,-0.102504,0.101972,0.359251
1666,0,3.81238,-0.11177,0.100487,0.344888
1680,0,3.81145,-0.0964154,0.105588,0.356434
1693,0,3.81078,-0.122271,0.104244,0.334456
1708,0,3.80894,-0.108712,0.0968397,0.327887
1721,0,3.81145,-0.115318,0.0932985,0.309784
1738,0,3.80669,-0.115326,0.0931936,0.309777
1751,0,3.81419,-0.122097,0.0866263,0.291429
1765,0,3.80304,-0.131582,0.0889409,0.285447
1783,0,3.81078,-0.114407,0.0822151,0.2809
1794,0,3.81128,-0.12068,0.0811235,0.269372
1806,0,3.81126,-0.124928,0.0795589,0.266209
1825,0,3.81436,-0.120435,0.0743056,0.25366
1837,0,3.80458,-0.132979,0.07556,0.24297
1857,0,3.80447,-0.149472,0.0730395,0.233294
1874,0,3.80502,-0.143282,0.0711111,0.228425
1886,0,3.80549,-0.152856,0.067741,0.219628
1897,0,3.80826,-0.147079,0.0694905,0.228413
1904,0,3.81473,-0.143862,0.070373,0.237812
1918,0,3.82826,-0.118297,0.0560435,0.215559
1926,0,3.81225,-0.166625,0.0558075,0.185819
1940,0,3.80759,-0.174708,0.0552997,0.180544
1950,0,3.81147,-0.157807,0.0591898,0.194684
1953,0,3.80773,-0.1585,0.061546,0.199953