Folder: MyBatteryML/calce_correlation_analysis/matrices (part 2)

File: CALCE_CS2_35_cycle_feature_matrix.csv
cycle_number,rul,voltage,current,capacity,charge_capacity
7,519,3.8574,-0.00857841,0.19179,0.739076
11,515,3.86165,-0.0155904,0.19378,0.727882
15,511,3.85909,-0.0102479,0.192243,0.733216
19,507,3.85835,-0.0101472,0.19221,0.732347
23,503,3.86026,-0.00887724,0.190264,0.729648
27,499,3.85754,-0.00578312,0.187651,0.727367
31,495,3.86231,-0.0113941,0.18611,0.709664
35,491,3.86443,-0.00855269,0.183638,0.708497
39,487,3.86674,-0.0145414,0.187168,0.704007
43,483,3.86643,-0.0100273,0.182606,0.699731
47,479,3.86599,-0.00989613,0.184142,0.704421
64,475,3.85973,-0.00979807,0.184091,0.706542
68,471,3.86142,-0.0132574,0.183564,0.696937
72,467,3.86419,-0.0134533,0.182068,0.6909
76,463,3.86594,-0.0147229,0.182563,0.687324
80,459,3.86613,-0.0118462,0.18006,0.686464
84,455,3.8647,-0.0132496,0.180525,0.684026
88,451,3.86598,-0.0124219,0.179054,0.679409
92,447,3.86589,-0.0135701,0.179012,0.678247
101,443,3.86536,-0.0155822,0.181568,0.679305
111,439,3.86243,-0.0142452,0.182618,0.689725
115,435,3.86158,-0.0125928,0.183598,0.695743
119,431,3.86154,-0.0158136,0.181551,0.681476
124,427,3.86169,-0.0153939,0.179505,0.677033
130,423,3.86388,-0.0136087,0.1805,0.682019
134,419,3.8626,-0.0140679,0.181016,0.681074
138,415,3.86539,-0.0113155,0.178553,0.679825
142,411,3.86534,-0.0109564,0.178542,0.679217
147,407,3.86582,-0.0159474,0.177037,0.663796
151,403,3.86701,-0.0176405,0.17904,0.664695
159,399,3.86446,-0.0107495,0.173425,0.66623
163,395,3.86386,-0.0190061,0.177468,0.660645
169,391,3.86476,-0.0139143,0.174418,0.661994
173,387,3.86337,-0.0144221,0.177956,0.669526
180,383,3.86329,-0.0145953,0.177986,0.669835
184,379,3.86446,-0.0131201,0.177506,0.671311
188,375,3.86472,-0.0116033,0.177004,0.672784
192,371,3.86437,-0.0115117,0.177029,0.673152
196,367,3.86093,-0.00871412,0.174449,0.671753
206,363,3.86315,-0.0191958,0.184151,0.685285
210,359,3.86087,-0.0143755,0.182644,0.690601
214,355,3.86072,-0.0131213,0.182115,0.691305
218,351,3.85974,-0.0129053,0.182084,0.690224
223,347,3.85595,-0.0110718,0.180002,0.687171
227,343,3.86012,-0.015879,0.17855,0.671364
231,339,3.85701,-0.0158526,0.178489,0.671821
236,335,3.86509,-0.0177951,0.179086,0.666733
241,331,3.863,-0.0178606,0.176034,0.657998
245,327,3.8612,-0.0137094,0.175953,0.667457
249,323,3.86086,-0.0208309,0.176457,0.654362
255,319,3.87128,-0.0260351,0.178141,0.648964
259,315,3.86269,-0.0160864,0.17701,0.663857
263,311,3.86211,-0.0162404,0.177006,0.664059
267,307,3.8619,-0.0162857,0.176995,0.663524
271,303,3.86268,-0.0145752,0.176469,0.664139
275,299,3.86145,-0.0206659,0.174944,0.648888
279,295,3.86247,-0.0182089,0.175989,0.656086
283,291,3.86299,-0.0209764,0.173473,0.643779
288,287,3.85908,-0.0156961,0.171856,0.649805
292,283,3.86013,-0.0235659,0.174475,0.640197
297,279,3.86457,-0.019356,0.171453,0.639278
301,275,3.86258,-0.0209567,0.174935,0.647121
307,271,3.86618,-0.0218392,0.174037,0.640977
311,267,3.86097,-0.0199887,0.174941,0.648223
315,263,3.86299,-0.0168158,0.173939,0.651122
319,259,3.86285,-0.016838,0.173945,0.651509
323,255,3.86241,-0.0170241,0.173966,0.651784
327,251,3.8623,-0.0201607,0.17195,0.637125
332,247,3.85776,-0.0154535,0.170368,0.644734
336,243,3.86138,-0.0204252,0.17044,0.632539
341,239,3.8599,-0.02418,0.172937,0.63365
347,235,3.85698,-0.0169384,0.170841,0.641972
351,231,3.86196,-0.0203113,0.170435,0.632089
355,227,3.86782,-0.0273382,0.173491,0.627899
359,223,3.8605,-0.0221573,0.173942,0.640815
363,219,3.86095,-0.0202804,0.173441,0.642704
368,215,3.86188,-0.0188379,0.174459,0.650392
372,211,3.86306,-0.0190265,0.172991,0.645603
376,207,3.86147,-0.0141094,0.171441,0.650931
380,203,3.86206,-0.0169176,0.17246,0.646435
384,199,3.85662,-0.01742,0.172393,0.647467
388,195,3.86151,-0.0171014,0.17094,0.641053
392,191,3.86125,-0.0173919,0.170925,0.641349
396,187,3.86049,-0.0209379,0.173444,0.642675
400,183,3.86276,-0.0159346,0.171955,0.647751
404,179,3.86012,-0.0176885,0.173902,0.650273
408,175,3.8599,-0.017478,0.173903,0.650246
412,171,3.85987,-0.0175171,0.173894,0.650216
416,167,3.8632,-0.0144587,0.172959,0.656583
420,163,3.85999,-0.0126607,0.172461,0.65869
424,159,3.86072,-0.0175621,0.173962,0.652802
428,155,3.85847,-0.0173083,0.173924,0.652853
432,151,3.86107,-0.0222087,0.173994,0.641791
436,147,3.85933,-0.0208503,0.171949,0.639025
444,143,3.86242,-0.0158293,0.171933,0.648668
448,139,3.86263,-0.0158762,0.171936,0.648044
452,135,3.86142,-0.0174326,0.172414,0.645762
456,131,3.86131,-0.0173522,0.172392,0.645349
463,127,3.86709,-0.0262533,0.172024,0.624276
467,123,3.86308,-0.0288019,0.172521,0.624014
474,119,3.81633,-0.490815,0.303938,0.217284
478,115,3.8643,-0.0233575,0.169441,0.623253
483,111,3.8581,-0.028391,0.169443,0.614233
487,107,3.86055,-0.0229491,0.169371,0.623955
491,103,3.86059,-0.0276658,0.167401,0.609503
495,99,3.85768,-0.0195192,0.165286,0.61675
499,95,3.86105,-0.0251552,0.166853,0.610101
503,91,3.86008,-0.0193832,0.163834,0.612221
507,87,3.86209,-0.0238894,0.16484,0.606569
511,83,3.86397,-0.0211949,0.165875,0.613653
516,79,3.86372,-0.0188991,0.165334,0.616266
521,75,3.86354,-0.0209208,0.165849,0.612935
525,71,3.8631,-0.0209261,0.164323,0.608426
529,67,3.85846,-0.021059,0.164266,0.608203
533,63,3.86247,-0.0251984,0.163846,0.598679
537,59,3.86023,-0.0217093,0.162728,0.602538
541,55,3.86526,-0.0245784,0.1618,0.593815
545,51,3.86221,-0.0238846,0.161748,0.594705
549,47,3.86406,-0.0246091,0.160251,0.588109
553,43,3.86196,-0.026585,0.160761,0.587327
557,39,3.86533,-0.0267711,0.160799,0.585809
561,35,3.86426,-0.0239251,0.161748,0.593213
566,31,3.86532,-0.0227248,0.161236,0.594193
570,27,3.86588,-0.0206358,0.160707,0.595155
574,23,3.8739,-0.0281887,0.159827,0.582063
578,19,3.86516,-0.024219,0.160229,0.586991
582,15,3.86331,-0.0277313,0.159743,0.578301
586,11,3.86678,-0.0230438,0.158228,0.583202
590,7,3.86475,-0.0267271,0.157719,0.574752
594,3,3.86351,-0.0267402,0.159188,0.578872
598,0,3.8642,-0.0275521,0.156171,0.567843
602,0,3.86723,-0.0230716,0.156682,0.576416
607,0,3.86604,-0.0252467,0.155681,0.56991
611,0,3.86802,-0.0205854,0.156172,0.578233
615,0,3.86864,-0.0181913,0.155659,0.57921
619,0,3.86846,-0.0194313,0.155644,0.578948
624,0,3.87631,-0.0249905,0.157217,0.574375
628,0,3.86856,-0.01968,0.155636,0.578681
632,0,3.86872,-0.0215876,0.153142,0.566347
637,0,3.86688,-0.0174115,0.153563,0.574974
641,0,3.8661,-0.0229815,0.153601,0.564382
645,0,3.86805,-0.0199451,0.154077,0.572142
653,0,3.86919,-0.0317008,0.152658,0.542947
660,0,3.86839,-0.0296871,0.142097,0.514744
667,0,3.8677,-0.0321598,0.139317,0.502139
673,0,3.86666,-0.0192683,0.134728,0.506469
677,0,3.86651,-0.0367039,0.137044,0.484877
684,0,3.86651,-0.0427901,0.136496,0.47475
688,0,3.8674,-0.0370972,0.137595,0.484066
692,0,3.86828,-0.0331248,0.136629,0.487915
696,0,3.8683,-0.0330894,0.136651,0.486958
703,0,3.87059,-0.0290048,0.135742,0.491262
708,0,3.87156,-0.0218843,0.132715,0.495705
712,0,3.86903,-0.033907,0.133635,0.476014
717,0,3.87061,-0.0352364,0.134228,0.471635
722,0,3.86859,-0.0371766,0.130562,0.461675
727,0,3.86989,-0.0361541,0.129108,0.455447
731,0,3.86956,-0.0375162,0.127361,0.450135
735,0,3.86523,-0.0454307,0.127076,0.43872
740,0,3.86639,-0.043797,0.125013,0.435971
744,0,3.86805,-0.0437848,0.123454,0.429912
748,0,3.86916,-0.0442799,0.123585,0.429795
755,0,3.864,-0.0473057,0.12398,0.427539
759,0,3.86713,-0.0419685,0.121482,0.425008
763,0,3.86195,-0.0528253,0.119643,0.408128
767,0,3.86627,-0.0527982,0.118344,0.402965
771,0,3.86269,-0.0532428,0.11653,0.397456
775,0,3.86421,-0.0540465,0.114988,0.390053
779,0,3.86329,-0.052403,0.115065,0.389664
783,0,3.86187,-0.0591242,0.112397,0.37744
801,0,3.85838,-0.0572306,0.110349,0.373788
805,0,3.85831,-0.0647321,0.106199,0.354245
809,0,3.85533,-0.0674756,0.106728,0.350312
814,0,3.85723,-0.0679733,0.101496,0.335058
818,0,3.85833,-0.0669642,0.103134,0.339513
823,0,3.86106,-0.0592537,0.100532,0.336799
827,0,3.8542,-0.0682223,0.0977872,0.323785
831,0,3.85127,-0.071988,0.0967606,0.314949
838,0,3.85069,-0.0664234,0.089092,0.294817
844,0,3.84965,-0.0781139,0.0797566,0.258211
848,0,3.84308,-0.089382,0.0792183,0.245982
852,0,3.85195,-0.0818308,0.0768261,0.245587
857,0,3.86565,-0.0362167,0.0666185,0.257074
863,0,3.85272,-0.0876674,0.0684308,0.216437
872,0,3.83936,-0.0992206,0.0677288,0.204738
876,0,3.84686,-0.0934176,0.0636116,0.19598
880,0,3.84253,-0.0996352,0.0641034,0.191726
896,0,3.8435,-0.0839065,0.0786102,0.251404
900,0,3.84819,-0.0850654,0.0788339,0.249104
904,0,3.84683,-0.0841474,0.0749809,0.238125
909,0,3.84675,-0.0883727,0.0718313,0.224352
915,0,3.85087,-0.0898047,0.070556,0.218024
924,0,3.84228,-0.0961047,0.0656324,0.199795
928,0,3.85038,-0.089682,0.0615675,0.191416
932,0,3.85129,-0.0895065,0.0616614,0.191836
935,0,3.85219,-0.0872567,0.0594598,0.187304

File: CALCE_CS2_36_cycle_feature_matrix.csv
cycle_number,rul,voltage,current,capacity,charge_capacity
7,488,3.85399,-0.01003,0.195365,0.748137
11,484,3.86187,-0.0111907,0.193896,0.740226
15,480,3.85653,-0.00945795,0.194818,0.746086
19,476,3.85878,-0.00657587,0.192359,0.744583
23,472,3.85768,-0.00793083,0.192842,0.743007
27,468,3.8526,-0.00715685,0.191265,0.738142
31,464,3.85796,-0.0108736,0.190741,0.72766
35,460,3.85986,-0.00819278,0.188255,0.725723
39,456,3.86069,-0.0111724,0.190769,0.725991
43,452,3.85919,-0.0109444,0.189205,0.72107
47,448,3.86127,-0.0079476,0.18828,0.725195
51,444,3.86104,-0.00994832,0.187216,0.717581
64,440,3.85452,-0.0118715,0.189743,0.721702
68,436,3.85804,-0.0128873,0.188222,0.715813
72,432,3.86193,-0.0113221,0.186234,0.711661
76,428,3.86254,-0.0113642,0.186224,0.710561
80,424,3.86159,-0.0114343,0.186194,0.710255
86,420,3.86046,-0.012954,0.186671,0.708038
91,416,3.86247,-0.0113408,0.184702,0.705304
95,412,3.86261,-0.0127679,0.183668,0.697868
100,408,3.86238,-0.014591,0.187176,0.705432
104,404,3.86048,-0.0131688,0.185164,0.702403
108,400,3.86001,-0.0131008,0.18664,0.706436
113,396,3.86111,-0.0130459,0.183649,0.697368
118,392,3.86084,-0.0146713,0.184141,0.695124
122,388,3.86557,-0.0131655,0.183685,0.695305
126,384,3.86149,-0.0116935,0.184651,0.703056
130,380,3.86172,-0.00987207,0.184169,0.705
134,376,3.86151,-0.00970325,0.184179,0.705377
138,372,3.86073,-0.00550843,0.181159,0.705077
142,368,3.86163,-0.0117995,0.181628,0.692685
146,364,3.85997,-0.009599,0.181114,0.694703
152,360,3.86265,-0.0133672,0.182167,0.691866
156,356,3.8639,-0.0147144,0.184189,0.693207
160,352,3.86127,-0.01498,0.182644,0.688565
164,348,3.86199,-0.0131353,0.183656,0.694964
168,344,3.85967,-0.0157354,0.183113,0.686908
173,340,3.86031,-0.0134588,0.18361,0.695369
177,336,3.86166,-0.0117975,0.183124,0.6961
181,332,3.86124,-0.0118612,0.183126,0.69629
185,328,3.86077,-0.0121894,0.183661,0.695792
189,324,3.85994,-0.0148916,0.182593,0.687286
193,320,3.86224,-0.0122087,0.182158,0.689868
197,316,3.86805,-0.0168263,0.181696,0.681379
201,312,3.86186,-0.0136862,0.180636,0.685008
206,308,3.8628,-0.0132476,0.182135,0.689296
210,304,3.86193,-0.0134986,0.180602,0.684012
214,300,3.8622,-0.0119768,0.181616,0.690514
218,296,3.86421,-0.0151779,0.182644,0.686599
222,292,3.86066,-0.0124019,0.182146,0.690072
226,288,3.86104,-0.0106427,0.181647,0.691354
231,284,3.86107,-0.0106869,0.181642,0.691362
235,280,3.86091,-0.0106694,0.181655,0.691173
239,276,3.86012,-0.0140831,0.181127,0.68253
244,272,3.85809,-0.0107607,0.180083,0.686111
250,268,3.85972,-0.0094135,0.18117,0.695526
255,264,3.77032,-0.688848,0.395002,0.127677
259,260,3.85562,-0.0132595,0.18061,0.686491
264,256,3.82535,-0.489076,0.330638,0.235987
268,252,3.86063,-0.0150219,0.181178,0.684495
272,248,3.85734,-0.0181544,0.180662,0.676729
276,244,3.85941,-0.0163066,0.181644,0.682317
280,240,3.85809,-0.0197047,0.181123,0.673705
284,236,3.85897,-0.0162418,0.181585,0.68098
288,232,3.85894,-0.0161226,0.181613,0.68187
292,228,3.85925,-0.0146351,0.181084,0.682744
296,224,3.85936,-0.0145136,0.181099,0.683138
300,220,3.86258,-0.0160531,0.178624,0.670671
304,216,3.86159,-0.0159118,0.180104,0.675424
308,212,3.86127,-0.0162872,0.178551,0.669324
312,208,3.86275,-0.0143393,0.178125,0.672284
317,204,3.86176,-0.0161512,0.180157,0.67731
321,200,3.8592,-0.0193217,0.179624,0.667948
325,196,3.86097,-0.0168836,0.180065,0.674837
329,192,3.8612,-0.0155172,0.17956,0.676346
333,188,3.85981,-0.0159044,0.180061,0.675207
339,184,3.86005,-0.0153636,0.179537,0.677065
343,180,3.86082,-0.0188419,0.177542,0.662595
347,176,3.86171,-0.0169824,0.17853,0.668435
351,172,3.86176,-0.0190244,0.176037,0.657396
355,168,3.8637,-0.0151819,0.176516,0.664778
359,164,3.86446,-0.0187318,0.174568,0.65242
363,160,3.86017,-0.0137008,0.173007,0.657514
367,156,3.86684,-0.0204567,0.176593,0.654409
371,152,3.86254,-0.0194419,0.175034,0.6498
375,148,3.86317,-0.0186393,0.176005,0.655477
379,144,3.86415,-0.0168761,0.175512,0.657611
383,140,3.86397,-0.0154035,0.175009,0.659425
387,136,3.86481,-0.0134246,0.174495,0.660245
392,132,3.86173,-0.0140511,0.171466,0.652762
396,128,3.86269,-0.0199466,0.173496,0.643294
400,124,3.86529,-0.0171797,0.170997,0.642255
404,120,3.86896,-0.0222129,0.174067,0.640475
408,116,3.86538,-0.0188302,0.171471,0.638807
412,112,3.86712,-0.0179361,0.172989,0.643306
416,108,3.86336,-0.0148666,0.170453,0.643433
420,104,3.86292,-0.0226136,0.172472,0.635746
424,100,3.86729,-0.0165372,0.170995,0.640763
428,96,3.86383,-0.0188181,0.172947,0.643925
433,92,3.86853,-0.0187456,0.169985,0.631771
437,88,3.86543,-0.0186088,0.168397,0.626585
441,84,3.86733,-0.0204389,0.170427,0.627944
445,80,3.86606,-0.0169256,0.166377,0.622057
449,76,3.86876,-0.0171617,0.167923,0.625704
453,72,3.86843,-0.017441,0.164887,0.615668
457,68,3.86895,-0.0150966,0.165904,0.62354
462,64,3.86767,-0.018693,0.165375,0.613994
467,60,3.86765,-0.0151679,0.16587,0.623154
471,56,3.86829,-0.0134501,0.165365,0.624671
475,52,3.8681,-0.0131625,0.165346,0.624036
479,48,3.86699,-0.0145423,0.165852,0.622762
483,44,3.86719,-0.0243604,0.168457,0.614084
487,40,3.86626,-0.0191806,0.163816,0.607937
491,36,3.86911,-0.0221476,0.166381,0.608185
495,32,3.86953,-0.0172301,0.161814,0.603616
499,28,3.87101,-0.0208769,0.164375,0.603988
504,24,3.86835,-0.0172315,0.160293,0.598429
515,20,3.87059,-0.0252189,0.160871,0.583578
519,16,3.8687,-0.0171429,0.160271,0.597411
523,12,3.86961,-0.0136748,0.15926,0.600709
527,8,3.86885,-0.0150634,0.159745,0.598363
533,4,3.8696,-0.0302078,0.162446,0.57837
539,0,3.86553,-0.0262035,0.156227,0.568569
549,0,3.86503,-0.0197888,0.154169,0.577007
555,0,3.86306,-0.0252182,0.154187,0.566219
559,0,3.86343,-0.0330806,0.156309,0.55709
565,0,3.86645,-0.025003,0.151132,0.552608
570,0,3.86755,-0.0150754,0.148562,0.562947
574,0,3.86714,-0.025201,0.151082,0.550892
580,0,3.87163,-0.0231877,0.149143,0.54786
586,0,3.87088,-0.0205071,0.151617,0.559516
590,0,3.87107,-0.0179577,0.151099,0.561157
594,0,3.87225,-0.0163312,0.150584,0.562316
598,0,3.87872,-0.023042,0.150677,0.55544
602,0,3.86972,-0.0205121,0.151558,0.558815
606,0,3.86956,-0.0231329,0.147489,0.539743
610,0,3.87088,-0.0225899,0.149041,0.54508
615,0,3.87144,-0.0215801,0.143963,0.530492
621,0,3.87327,-0.0174138,0.141444,0.529233
626,0,3.87245,-0.0233028,0.142991,0.524697
632,0,3.87233,-0.0239932,0.143013,0.523963
637,0,3.8707,-0.0231846,0.145986,0.532955
641,0,3.87229,-0.0212247,0.145498,0.535191
645,0,3.87196,-0.0211023,0.14551,0.53583
649,0,3.86919,-0.0229132,0.140906,0.52183
654,0,3.87005,-0.0231879,0.139359,0.514185
658,0,3.87045,-0.0275486,0.14041,0.508859
663,0,3.87198,-0.025072,0.13839,0.505258
667,0,3.87182,-0.0275927,0.138914,0.503479
672,0,3.87131,-0.0275944,0.137342,0.497624
676,0,3.87129,-0.0296677,0.137903,0.495533
682,0,3.87029,-0.0294026,0.139382,0.500289
686,0,3.87482,-0.0293682,0.140982,0.50473
690,0,3.87268,-0.0217704,0.140857,0.516122
694,0,3.87386,-0.0207771,0.140352,0.517686
698,0,3.8825,-0.0276922,0.141994,0.513695
704,0,3.87092,-0.0176348,0.136265,0.513092
713,0,3.86926,-0.0195012,0.13519,0.504988
717,0,3.87439,-0.0248236,0.133266,0.487209
723,0,3.87446,-0.0224521,0.131214,0.483716
735,0,3.8666,-0.040785,0.121173,0.426552
745,0,3.86496,-0.0513044,0.117897,0.403081
753,0,3.86731,-0.0299208,0.110446,0.409779
757,0,3.86532,-0.0524878,0.113063,0.385052
767,0,3.86754,-0.0664999,0.11412,0.369647
771,0,3.8674,-0.052216,0.111287,0.379106
775,0,3.86951,-0.0484011,0.110817,0.37994
782,0,3.87261,-0.0449498,0.106883,0.372678
787,0,3.8712,-0.04657,0.109036,0.375107
791,0,3.87425,-0.0439683,0.10383,0.360171
795,0,3.87678,-0.0434673,0.101741,0.354682
800,0,3.86803,-0.0479011,0.10244,0.352042
805,0,3.86784,-0.0553298,0.0997684,0.337293
809,0,3.87106,-0.0519898,0.0978202,0.334016
813,0,3.86577,-0.05928,0.0972239,0.325111
817,0,3.86547,-0.0599225,0.0918225,0.308922
821,0,3.86561,-0.062628,0.0925346,0.307396
825,0,3.8573,-0.0683217,0.0912203,0.298429
831,0,3.85507,-0.0717175,0.0883546,0.287509
836,0,3.85371,-0.0750248,0.0873463,0.276788
841,0,3.859,-0.0697425,0.0810318,0.266724
846,0,3.85066,-0.0841892,0.0772998,0.242824
851,0,3.84988,-0.081035,0.0788409,0.248497
857,0,3.84852,-0.0873622,0.0757668,0.236951
861,0,3.8488,-0.0852622,0.0735622,0.233312
865,0,3.84963,-0.0820215,0.0751757,0.238648
869,0,3.85051,-0.0793967,0.0714134,0.227243
883,0,3.84958,-0.0877968,0.0684551,0.214182
887,0,3.8476,-0.0883765,0.0668241,0.20907
891,0,3.85217,-0.0837428,0.0648352,0.204093
900,0,3.84046,-0.105122,0.0649527,0.190682
904,0,3.84703,-0.0915887,0.0639374,0.19577
910,0,3.84881,-0.0806014,0.0625759,0.196927
914,0,3.84606,-0.0894855,0.0616048,0.189949
918,0,3.85031,-0.0873041,0.0555782,0.170639
922,0,3.84565,-0.0929193,0.05616,0.171602
926,0,3.8713,-0.0695038,0.0445833,0.100297
930,0,3.87699,-0.10344,0.0422588,0.124094
934,0,3.88661,-0.0928597,0.0380672,0.113787
938,0,3.87129,-0.117425,0.03874,0.11045
943,0,3.9106,0.00440135,0.0306994,0.146211
947,0,3.87321,-0.116104,0.0373637,0.104092
951,0,3.875,-0.103049,0.038296,0.109313
955,0,3.88419,-0.0949678,0.036436,0.10611
960,0,3.91456,0.00250817,0.0292874,0.139446
964,0,3.87321,-0.110782,0.0349512,0.0972573
968,0,3.88884,-0.0971696,0.0326761,0.0946129
972,0,3.89115,-0.0994067,0.0328277,0.0945923
975,0,3.88393,-0.106196,0.0348109,0.0977961