Folder: MyBatteryML/hust_correlation_analysis/matrices (part 16)

File: HUST_4-8_cycle_feature_matrix.csv
cycle_number,rul,voltage,current,capacity,charge_capacity
1,1708,3.31301,0.0295673,0.299239,1.04896
9,1700,3.30118,-0.012067,0.314751,1.02272
17,1692,3.30458,-0.0129227,0.311979,1.03113
25,1684,3.30685,-0.0116456,0.30983,1.03543
33,1676,3.30917,-0.011036,0.307338,1.03694
41,1668,3.31092,-0.0104971,0.306109,1.03784
49,1660,3.31152,-0.0105216,0.305501,1.03822
57,1652,3.31096,-0.0110357,0.304875,1.03808
65,1644,3.31203,-0.0111313,0.304465,1.03819
73,1636,3.3114,-0.0123985,0.304462,1.03743
81,1628,3.3131,-0.0098743,0.302856,1.03717
89,1620,3.31303,-0.0104486,0.302841,1.03679
97,1612,3.31318,-0.0115812,0.30285,1.03616
105,1604,3.31381,-0.00990456,0.302037,1.03499
113,1596,3.31375,-0.00986967,0.302028,1.035
121,1588,3.31376,-0.0110822,0.302051,1.03432
129,1580,3.31231,-0.0122543,0.302835,1.03302
137,1572,3.31408,-0.00992831,0.301612,1.03265
145,1564,3.31411,-0.0104258,0.301638,1.03238
153,1556,3.31302,-0.0116349,0.302451,1.0313
161,1548,3.31262,-0.0122074,0.302452,1.03096
169,1540,3.31436,-0.00986334,0.301202,1.03021
177,1532,3.31326,-0.0104655,0.30206,1.02969
185,1524,3.31263,-0.0117782,0.302463,1.02871
193,1516,3.31256,-0.0117519,0.302609,1.02871
201,1508,3.3144,-0.0100043,0.301784,1.02778
209,1500,3.31338,-0.0104861,0.301648,1.02729
217,1492,3.31289,-0.0111118,0.301795,1.02692
225,1484,3.31297,-0.0118204,0.30205,1.02629
233,1476,3.31249,-0.0125406,0.302029,1.02581
241,1468,3.31324,-0.0102346,0.301625,1.02482
249,1460,3.31251,-0.0108791,0.301626,1.02443
257,1452,3.31279,-0.0113644,0.301625,1.02414
265,1444,3.31275,-0.0126017,0.301632,1.02344
273,1436,3.31319,-0.0102628,0.301227,1.02244
281,1428,3.31313,-0.0106846,0.300828,1.02241
289,1420,3.31227,-0.0113418,0.301226,1.02181
297,1412,3.31252,-0.0120619,0.30163,1.02143
305,1404,3.31204,-0.0126615,0.301637,1.02085
313,1396,3.31344,-0.0100817,0.300423,1.0204
321,1388,3.31243,-0.0108153,0.300825,1.01977
329,1380,3.31201,-0.0120154,0.301246,1.01891
337,1372,3.31246,-0.012517,0.30146,1.01861
345,1364,3.31352,-0.0102601,0.300429,1.01773
353,1356,3.31345,-0.0107701,0.300445,1.01749
361,1348,3.31261,-0.0112492,0.300853,1.01701
369,1340,3.31166,-0.0120508,0.301256,1.01634
377,1332,3.31168,-0.0125334,0.301273,1.01609
385,1324,3.31276,-0.0101187,0.300469,1.01533
393,1316,3.31279,-0.0108815,0.300869,1.01467
401,1308,3.31262,-0.0113425,0.300882,1.01444
409,1300,3.31188,-0.012036,0.3013,1.01386
417,1292,3.31159,-0.0125642,0.301294,1.01355
425,1284,3.31263,-0.0100376,0.300501,1.01286
433,1276,3.31234,-0.0107749,0.300491,1.0124
441,1268,3.31138,-0.0115011,0.300898,1.01177
449,1260,3.31144,-0.0120463,0.300907,1.01148
457,1252,3.31067,-0.0127796,0.301287,1.01086
465,1244,3.31251,-0.0103272,0.300088,1.01027
473,1236,3.31229,-0.0108806,0.300519,1.00981
481,1228,3.31201,-0.0115482,0.300508,1.00938
489,1220,3.31182,-0.0121487,0.300505,1.00903
497,1212,3.31306,-0.00961663,0.2997,1.00834
505,1204,3.31283,-0.0103449,0.299696,1.0079
513,1196,3.31193,-0.0111016,0.300106,1.00725
521,1188,3.31171,-0.0121428,0.300542,1.00678
529,1180,3.31108,-0.0122358,0.300534,1.00643
537,1172,3.31288,-0.0097649,0.299306,1.00587
545,1164,3.31182,-0.0108921,0.300169,1.00489
553,1156,3.31178,-0.0115446,0.30017,1.00453
561,1148,3.31079,-0.0120996,0.300598,1.00404
569,1140,3.31105,-0.0126661,0.300603,1.00374
577,1132,3.31154,-0.0109424,0.300221,1.00236
585,1124,3.31134,-0.0115446,0.300763,1.00203
593,1116,3.31051,-0.012315,0.300651,1.0014
601,1108,3.31049,-0.0129464,0.300647,1.00104
609,1100,3.3113,-0.0105345,0.299838,1.00021
617,1092,3.31149,-0.0116908,0.299835,0.999548
625,1084,3.3101,-0.0124516,0.300686,0.99873
633,1076,3.31038,-0.0129365,0.300257,0.998641
641,1068,3.31115,-0.010428,0.299447,0.997875
649,1060,3.31057,-0.011645,0.299874,0.996993
657,1052,3.30996,-0.0123783,0.299877,0.996573
665,1044,3.31131,-0.0103908,0.299063,0.995515
673,1036,3.31013,-0.0111501,0.299931,0.994722
681,1028,3.30947,-0.0123781,0.300359,0.993839
689,1020,3.30967,-0.0130657,0.29992,0.993603
697,1012,3.31076,-0.0106117,0.299114,0.992809
705,1004,3.31028,-0.0118692,0.29954,0.991909
713,996,3.30925,-0.0126301,0.299971,0.991289
721,988,3.31079,-0.0106221,0.298945,0.990413
729,980,3.30986,-0.0112594,0.299165,0.989861
737,972,3.30843,-0.012684,0.300028,0.988654
745,964,3.31088,-0.0100075,0.298428,0.988361
753,956,3.31008,-0.0113297,0.298775,0.987392
761,948,3.30926,-0.012086,0.29921,0.986763
769,940,3.31024,-0.0100946,0.298405,0.985701
777,932,3.30923,-0.0113956,0.298835,0.984981
785,924,3.30916,-0.0120539,0.298827,0.98437
793,916,3.31069,-0.010087,0.298023,0.983267
801,908,3.3091,-0.0113833,0.298902,0.982185
809,900,3.30784,-0.0127014,0.299888,0.981232
817,892,3.30996,-0.0105688,0.298094,0.980428
825,884,3.3094,-0.0113964,0.298533,0.980032
833,876,3.30784,-0.0127037,0.298977,0.978853
841,868,3.30873,-0.010844,0.298163,0.977664
849,860,3.30846,-0.0122221,0.29862,0.976759
857,852,3.30787,-0.0128381,0.298615,0.976389
865,844,3.30783,-0.011175,0.298243,0.974884
873,836,3.30786,-0.0122532,0.298249,0.972842
881,828,3.30661,-0.0136964,0.299216,0.973117
889,820,3.30722,-0.0117348,0.298322,0.971715
897,812,3.30748,-0.0127852,0.298329,0.971427
905,804,3.30811,-0.0110494,0.297968,0.969934
913,796,3.30702,-0.0123892,0.297963,0.969199
921,788,3.30657,-0.0136602,0.298412,0.968333
929,780,3.30695,-0.0117782,0.298049,0.966904
937,772,3.30588,-0.0131409,0.298495,0.965958
945,764,3.30758,-0.0113,0.297689,0.964733
953,756,3.30573,-0.0125786,0.298147,0.963868
961,748,3.30558,-0.0138832,0.298151,0.963159
969,740,3.306,-0.0119311,0.297796,0.9618
977,732,3.30532,-0.0138266,0.298115,0.960616
985,724,3.30669,-0.0111505,0.296988,0.959983
993,716,3.30456,-0.0133874,0.298362,0.9582
1001,708,3.30574,-0.0119235,0.297556,0.956748
1009,700,3.30466,-0.013323,0.298003,0.955785
1017,692,3.3063,-0.0113734,0.296733,0.954766
1025,684,3.30453,-0.0128095,0.297661,0.953616
1033,676,3.30321,-0.0143022,0.298122,0.95262
1041,668,3.30462,-0.0121334,0.296829,0.951666
1049,660,3.30353,-0.0142544,0.297302,0.950373
1057,652,3.30474,-0.012903,0.296964,0.948666
1065,644,3.30289,-0.0144428,0.297426,0.947628
1073,636,3.3043,-0.0124321,0.296609,0.946438
1081,628,3.30242,-0.0143258,0.297564,0.945071
1089,620,3.30358,-0.0129953,0.296752,0.943513
1097,612,3.30263,-0.014671,0.297225,0.942689
1105,604,3.30235,-0.0132515,0.296887,0.940715
1113,596,3.30301,-0.0119129,0.296561,0.938969
1121,588,3.30266,-0.0132742,0.296555,0.938271
1129,580,3.30265,-0.0119139,0.296447,0.936511
1137,572,3.30146,-0.0138972,0.296707,0.935286
1145,564,3.302175,-0.0127584,0.296383,0.933416
1153,556,3.30067,-0.0147274,0.296864,0.932194
1161,548,3.30125,-0.0133536,0.296055,0.930639
1169,540,3.30196,-0.0119561,0.295736,0.928886
1177,532,3.30093,-0.0143181,0.296442,0.927469
1185,524,3.30101,-0.0127783,0.295891,0.925769
1193,516,3.29868,-0.0149158,0.29688,0.924292
1201,508,3.29972,-0.0136748,0.29607,0.922625
1209,500,3.30014,-0.0121285,0.295256,0.921116
1217,492,3.29795,-0.0152625,0.296747,0.918931
1225,484,3.29966,-0.013885,0.295435,0.917525
1233,476,3.29964,-0.0132708,0.295113,0.915291
1241,468,3.30025,-0.00988314,0.293792,0.913635
1249,460,3.29842,-0.0183375,0.294295,0.911751
1257,452,3.29966,-0.0137674,0.292486,0.909654
1265,444,3.29937,-0.0181527,0.291662,0.90765
1273,436,3.29857,-0.0175484,0.29184,0.905247
1281,428,3.29746,-0.0166492,0.291337,0.90341
1289,420,3.29804,-0.0121574,0.290013,0.901033
1297,412,3.2982,-0.019046,0.289194,0.899083
1305,404,3.29857,-0.0145806,0.287876,0.896692
1313,396,3.29866,-0.0108171,0.28707,0.893785
1321,388,3.29635,-0.0214847,0.287553,0.892095
1329,380,3.29655,-0.0169758,0.286243,0.889719
1337,372,3.29734,-0.0123346,0.284927,0.887413
1345,364,3.2972,-0.0199803,0.284614,0.884985
1353,356,3.29769,-0.0154323,0.283301,0.882612
1361,348,3.29797,-0.0107983,0.281977,0.880253
1369,340,3.29799,-0.0165868,0.281159,0.877678
1377,332,3.29783,-0.0127219,0.280345,0.874785
1385,324,3.2985,-0.0158104,0.278541,0.872666
1393,316,3.29931,-0.0119709,0.277216,0.86991
1401,308,3.29906,-0.017836,0.276409,0.867382
1409,300,3.29724,-0.0171048,0.276397,0.865225
1417,292,3.29722,-0.0152506,0.275572,0.862556
1425,284,3.29627,-0.0210916,0.274751,0.860021
1433,276,3.29902,-0.0117275,0.271639,0.856719
1441,268,3.29617,-0.0173416,0.273087,0.854696
1449,260,3.29592,-0.0193727,0.271768,0.851657
1457,252,3.29743,-0.0134988,0.269602,0.848976
1465,244,3.29641,-0.0215505,0.269638,0.846324
1473,236,3.29592,-0.0175367,0.26831,0.843569
1481,228,3.29567,-0.0176069,0.267969,0.841066
1489,220,3.29606,-0.0195767,0.266165,0.83827
1497,212,3.29653,-0.0176234,0.265347,0.83567
1505,204,3.29573,-0.0143852,0.264511,0.832378
1513,196,3.29456,-0.0145356,0.264661,0.829635
1521,188,3.29615,-0.0143844,0.261891,0.826964
1529,180,3.29502,-0.022861,0.262026,0.824199
1537,172,3.29435,-0.02085,0.26123,0.821604
1545,164,3.29727,-0.0188381,0.258079,0.818526
1553,156,3.29783,-0.0127575,0.256273,0.815573
1561,148,3.29701,-0.0127481,0.255915,0.813114
1569,140,3.29753,-0.0168376,0.254599,0.810439
1577,132,3.29676,-0.013648,0.253768,0.807091
1585,124,3.29665,-0.0115143,0.252929,0.804509
1593,116,3.29731,-0.015776,0.251616,0.801777
1601,108,3.29665,-0.0135922,0.250793,0.799199
1609,100,3.29714,-0.0178196,0.249453,0.796487
1617,92,3.29696,-0.0136351,0.248136,0.793739
1625,84,3.29607,-0.0200855,0.247782,0.790965
1633,76,3.2962,-0.0159534,0.246462,0.788161
1641,68,3.29595,-0.0124286,0.245621,0.784921
1649,60,3.29635,-0.020355,0.244889,0.782975
1657,52,3.29542,-0.016786,0.243943,0.779738
1665,44,3.29655,-0.016955,0.241186,0.776815
1673,36,3.29542,-0.0148986,0.240815,0.773999
1681,28,3.29547,-0.019307,0.239593,0.771221
1689,20,3.29563,-0.014929,0.238172,0.768495
1697,12,3.29555,-0.0128103,0.237326,0.76589
1705,4,3.29681,-0.0147562,0.23562,0.763291
1706,3,3.2957,-0.0158571,0.235389,0.762628

File: HUST_5-1_cycle_feature_matrix.csv
cycle_number,rul,voltage,current,capacity,charge_capacity
1,2509,3.3251,-0.00576148,0.291142,1.03657
13,2497,3.31345,-0.00751508,0.295686,1.02793
25,2485,3.31469,-0.0076623,0.294799,1.02573
37,2473,3.31339,-0.00949165,0.29564,1.02435
49,2461,3.31439,-0.00778661,0.294775,1.02318
61,2449,3.31346,-0.00902173,0.294785,1.02257
73,2437,3.31482,-0.00777692,0.294107,1.02111
85,2425,3.31458,-0.00889653,0.293901,1.02051
97,2413,3.31406,-0.0103494,0.294321,1.01954
109,2401,3.31569,-0.00779046,0.292806,1.01918
121,2389,3.31481,-0.00908621,0.293227,1.0183
133,2377,3.31433,-0.0103857,0.293435,1.01739
145,2365,3.3154,-0.00781081,0.292136,1.01684
157,2353,3.31516,-0.00901576,0.292119,1.01616
169,2341,3.3142,-0.009702,0.292535,1.01558
181,2329,3.31575,-0.00717694,0.291224,1.01496
193,2317,3.31525,-0.00847742,0.29164,1.01405
205,2305,3.31528,-0.00849041,0.291638,1.01429
217,2293,3.31502,-0.00972016,0.291641,1.0134
229,2281,3.31474,-0.0103519,0.291331,1.01306
241,2269,3.31387,-0.0104848,0.292073,1.01281
253,2257,3.31538,-0.00793958,0.290781,1.01228
265,2245,3.31494,-0.00856813,0.29078,1.01195
277,2233,3.31489,-0.00980364,0.290773,1.01127
289,2221,3.31438,-0.0104479,0.290778,1.01094
301,2209,3.31616,-0.0079756,0.289475,1.01035
313,2197,3.31622,-0.00855282,0.289475,1.01004
325,2185,3.31583,-0.00981315,0.289472,1.00937
337,2173,3.31517,-0.0105455,0.28989,1.00877
349,2161,3.31629,-0.00799267,0.28858,1.00817
361,2149,3.31597,-0.00923595,0.288579,1.00751
373,2137,3.31624,-0.00976551,0.288159,1.00743
385,2125,3.31578,-0.0105233,0.288574,1.00681
397,2113,3.3172,-0.00860434,0.287272,1.00589
409,2101,3.31719,-0.00914626,0.286813,1.00582
421,2089,3.31639,-0.00993129,0.287259,1.00516
433,2077,3.31808,-0.0078449,0.285947,1.0043
445,2065,3.31756,-0.00866066,0.285946,1.00385
457,2053,3.31732,-0.00921093,0.285949,1.00357
469,2041,3.31683,-0.00991878,0.286366,1.00278
481,2029,3.31641,-0.010544,0.286361,1.00264
493,2017,3.31825,-0.00798529,0.285065,1.00209
505,2005,3.31805,-0.00924427,0.285062,1.0014
517,1993,3.31712,-0.00995194,0.285482,1.00083
529,1981,3.31934,-0.00798405,0.283754,1.00012
541,1969,3.31836,-0.00865773,0.284179,0.99957
553,1957,3.31798,-0.00992896,0.284184,0.998855
565,1945,3.31833,-0.00982919,0.28375,0.999114
577,1933,3.3191,-0.00799298,0.283257,0.997651
589,1921,3.3186,-0.00923663,0.28325,0.996975
601,1909,3.31922,-0.00980072,0.282828,0.996851
613,1897,3.3177,-0.0105114,0.283236,0.996244
625,1885,3.3194,-0.00835059,0.281929,0.995435
637,1873,3.31982,-0.00856289,0.281517,0.995518
649,1861,3.31851,-0.0099431,0.282345,0.994368
661,1849,3.31845,-0.0105571,0.28145,0.994497
673,1837,3.32028,-0.0078957,0.28063,0.99372
685,1825,3.31976,-0.00921375,0.28104,0.992796
697,1813,3.31879,-0.0100179,0.281454,0.992158
709,1801,3.32031,-0.00799349,0.280143,0.991256
721,1789,3.32033,-0.0084935,0.279732,0.991202
733,1777,3.31848,-0.0141319,0.281139,0.990789
745,1765,3.31872,-0.0106186,0.280555,0.989633
757,1753,3.32071,-0.00810604,0.279247,0.988988
769,1741,3.32026,-0.00931736,0.279449,0.988367
781,1729,3.31956,-0.0099705,0.279102,0.988023
793,1717,3.31876,-0.0106084,0.279673,0.987488
805,1705,3.32078,-0.00927479,0.27836,0.986219
817,1693,3.31996,-0.0101393,0.279309,0.985603
829,1681,3.32127,-0.00810953,0.277473,0.984667
841,1669,3.32023,-0.00940256,0.277885,0.983763
853,1657,3.31991,-0.0106415,0.27788,0.98308
865,1645,3.32101,-0.00878868,0.276985,0.981871
877,1633,3.32036,-0.00942645,0.277395,0.981311
889,1621,3.31994,-0.0107012,0.277387,0.980615
901,1609,3.32108,-0.00814231,0.2765,0.979816
913,1597,3.32059,-0.00944668,0.276494,0.979088
925,1585,3.32007,-0.0101534,0.276495,0.97873
937,1573,3.3212,-0.00881285,0.275593,0.977212
949,1561,3.32019,-0.010191,0.276006,0.976282
961,1549,3.32166,-0.00810545,0.274694,0.975368
973,1537,3.32131,-0.00887041,0.274698,0.974981
985,1525,3.32035,-0.0101266,0.275631,0.974101
997,1513,3.32188,-0.00821096,0.273787,0.973081
1009,1501,3.32071,-0.0136089,0.273974,0.971228
1021,1489,3.32195,-0.0109559,0.272466,0.97063
1033,1477,3.32102,-0.0126587,0.272875,0.969758
1045,1465,3.32035,-0.0153105,0.273297,0.969181
1057,1453,3.32175,-0.00996108,0.272087,0.967701
1069,1441,3.3218,-0.00953957,0.271157,0.966857
1081,1429,3.32071,-0.0109381,0.271571,0.965921
1093,1417,3.32156,-0.0146674,0.270256,0.964229
1105,1405,3.32152,-0.00864639,0.270254,0.963845
1117,1393,3.32255,-0.010562,0.268527,0.962049
1129,1381,3.32198,-0.012986,0.268934,0.961813
1141,1369,3.32124,-0.012702,0.268927,0.960683
1153,1357,3.32222,-0.0106089,0.268019,0.959565
1165,1345,3.32138,-0.00865416,0.267604,0.958259
1177,1333,3.32307,-0.0133436,0.266294,0.957332
1189,1321,3.32216,-0.0130598,0.266289,0.956213
1201,1309,3.32125,-0.0109742,0.265881,0.95497
1213,1297,3.322,-0.0153931,0.266019,0.954594
1225,1285,3.32342,-0.0105517,0.264297,0.952771
1237,1273,3.32219,-0.0180788,0.264707,0.952197
1249,1261,3.32179,-0.0176698,0.264296,0.951306
1261,1249,3.32201,-0.0137211,0.26374,0.950343
1273,1237,3.32328,-0.00826506,0.261947,0.948844
1285,1225,3.32282,-0.0079795,0.261954,0.947754
1297,1213,3.32214,-0.00870136,0.261956,0.947368
1309,1201,3.32346,-0.0123495,0.260653,0.945775
1321,1189,3.32241,-0.014806,0.261057,0.945573
1333,1177,3.32425,-0.0083037,0.258946,0.943536
1345,1165,3.32293,-0.00797486,0.259348,0.942262
1357,1153,3.32224,-0.0161286,0.259339,0.941521
1369,1141,3.32278,-0.0140798,0.258432,0.9404
1381,1129,3.32309,-0.0120199,0.257624,0.939524
1393,1117,3.32362,-0.00837741,0.256718,0.937717
1405,1105,3.32264,-0.0154898,0.256712,0.936283
1417,1093,3.3237,-0.0134322,0.255806,0.935168
1429,1081,3.32271,-0.0131475,0.2558,0.934026
1441,1069,3.32144,-0.0127911,0.256198,0.932752
1453,1057,3.32232,-0.012442,0.255687,0.931586
1465,1045,3.32244,-0.00855485,0.254493,0.930574
1477,1033,3.32286,-0.0083818,0.254377,0.929356
1489,1021,3.32185,-0.0137709,0.25397,0.92801
1501,1009,3.32248,-0.013565,0.253453,0.927003
1513,997,3.32166,-0.0132676,0.253446,0.9256
1525,985,3.32219,-0.0119457,0.252925,0.923879
1537,973,3.32102,-0.0133559,0.253728,0.922783
1549,961,3.32094,-0.0133105,0.253086,0.921313
1561,949,3.32019,-0.0134273,0.253081,0.919737
1573,937,3.32086,-0.0174259,0.252274,0.918215
1585,925,3.32156,-0.017225,0.251253,0.917455
1597,913,3.32037,-0.0139998,0.250848,0.915185
1609,901,3.32122,-0.0109546,0.249933,0.913255
1621,889,3.31987,-0.0130525,0.25073,0.911816
1633,877,3.32035,-0.0162812,0.249415,0.91047
1645,865,3.31968,-0.014629,0.249526,0.909141
1657,853,3.32101,-0.00861837,0.247407,0.906709
1669,841,3.3192,-0.00898878,0.24821,0.904876
1681,829,3.31958,-0.014742,0.247286,0.903372
1693,817,3.32084,-0.0114429,0.245963,0.901721
1705,805,3.31916,-0.0107206,0.245956,0.899514
1717,793,3.31902,-0.00759442,0.245434,0.897399
1729,781,3.32018,-0.00613711,0.244509,0.895908
1741,769,3.31759,-0.0163769,0.245701,0.89384
1753,757,3.31749,-0.0184717,0.245491,0.892413
1765,745,3.31898,-0.0117875,0.243849,0.890412
1777,733,3.31731,-0.0128771,0.244253,0.888432
1789,721,3.31817,-0.00845759,0.242923,0.886024
1801,709,3.31794,-0.0144566,0.242391,0.88405
1813,697,3.31645,-0.0155378,0.242789,0.882269
1825,685,3.3164,-0.0110633,0.241853,0.879649
1837,673,3.31727,-0.00785717,0.240518,0.877905
1849,661,3.31752,-0.014586,0.240048,0.875887
1861,649,3.3158,-0.0137864,0.239984,0.873694
1873,637,3.31583,-0.0111895,0.239048,0.871452
1885,625,3.31609,-0.0160402,0.238114,0.869247
1897,613,3.31718,-0.0127842,0.236932,0.867525
1909,601,3.31642,-0.0109383,0.236667,0.864503
1921,589,3.31392,-0.0141122,0.237447,0.862625
1933,577,3.3152,-0.00955648,0.236097,0.860188
1945,565,3.31547,-0.016379,0.235158,0.858385
1957,553,3.31552,-0.0138314,0.234617,0.85589
1969,541,3.31614,-0.00733665,0.23286,0.853242
1981,529,3.31416,-0.0123361,0.234233,0.851658
1993,517,3.31413,-0.0154233,0.232717,0.849202
2005,505,3.31477,-0.0128618,0.231776,0.846915
2017,493,3.31342,-0.0177992,0.232932,0.845166
2029,481,3.3151,-0.0097191,0.230279,0.842466
2041,469,3.31372,-0.0129292,0.230938,0.840212
2053,457,3.31391,-0.0179815,0.229991,0.838021
2065,445,3.31244,-0.0192205,0.229987,0.836193
2077,433,3.31268,-0.0181705,0.22945,0.834307
2089,421,3.31355,-0.0162592,0.22742,0.831071
2101,409,3.31439,-0.00747456,0.227233,0.829035
2113,397,3.31201,-0.0167918,0.227139,0.827003
2125,385,3.31329,-0.0160415,0.226044,0.824739
2137,373,3.31292,-0.00918822,0.224805,0.822327
2149,361,3.3126,-0.0166397,0.224423,0.820195
2161,349,3.31202,-0.0181021,0.224116,0.817873
2173,337,3.3122,-0.0173662,0.223568,0.815816
2185,325,3.31271,-0.0125827,0.222189,0.813331
2197,313,3.31277,-0.0203037,0.221644,0.811178
2209,301,3.31216,-0.0135278,0.220384,0.808677
2221,289,3.31266,-0.0105782,0.219415,0.806475
2233,277,3.31314,-0.00772093,0.218449,0.80424
2245,265,3.31289,-0.0119759,0.217471,0.801184
2257,253,3.31071,-0.0153595,0.218294,0.799182
2269,241,3.31119,-0.0103586,0.216908,0.796898
2281,229,3.31165,-0.017874,0.215932,0.795143
2293,217,3.31195,-0.0170696,0.215364,0.793115
2305,205,3.31237,-0.0142726,0.214383,0.790801
2317,193,3.31308,-0.00920908,0.212988,0.788336
2329,181,3.31071,-0.0125661,0.213808,0.786568
2341,169,3.31136,-0.0147639,0.211993,0.783536
2353,157,3.31157,-0.0140345,0.21142,0.78146
2365,145,3.31212,-0.0110024,0.210434,0.779232
2377,133,3.31264,-0.00811177,0.209441,0.776933
2389,121,3.30963,-0.0138375,0.211088,0.775063
2401,109,3.30966,-0.0196294,0.210091,0.773016
2413,97,3.31072,-0.0160717,0.208675,0.770923
2425,85,3.30943,-0.0200108,0.209026,0.768751
2437,73,3.31018,-0.0151858,0.207617,0.766161
2449,61,3.31108,-0.0165538,0.205396,0.763722
2461,49,3.311,-0.020161,0.205632,0.762074
2473,37,3.30912,-0.019364,0.205627,0.75985
2485,25,3.30906,-0.0252295,0.204631,0.757596
2497,13,3.30973,-0.0168653,0.204459,0.756046
2507,3,3.31006,-0.0227638,0.203461,0.753793