Folder: MyBatteryML/hust_correlation_analysis/matrices (part 27)

File: HUST_7-8_cycle_feature_matrix.csv
cycle_number,rul,voltage,current,capacity,charge_capacity
1,1940,3.29989,0.0250259,0.339334,1.06403
10,1931,3.29263,-0.00751895,0.351755,1.04405
19,1922,3.2966,-0.00682784,0.347863,1.05087
28,1913,3.29798,-0.00787041,0.345527,1.05323
37,1904,3.30026,-0.00628654,0.343888,1.05512
46,1895,3.30092,-0.00646692,0.343076,1.05532
55,1886,3.30127,-0.00686653,0.342669,1.05522
64,1877,3.30222,-0.00472323,0.34164,1.05471
73,1868,3.30271,-0.00623407,0.341244,1.05382
82,1859,3.30239,-0.00687893,0.341239,1.05334
91,1850,3.3038,-0.0051945,0.340223,1.05254
100,1841,3.30294,-0.00584258,0.340618,1.05191
109,1832,3.30347,-0.00669267,0.340214,1.05173
118,1823,3.30278,-0.00736123,0.340626,1.05083
127,1814,3.30371,-0.00574201,0.339999,1.0498
136,1805,3.30374,-0.006255,0.340001,1.04944
145,1796,3.30317,-0.00673887,0.340401,1.04894
154,1787,3.30453,-0.00518156,0.339369,1.04797
163,1778,3.30408,-0.00572343,0.339766,1.04743
172,1769,3.30351,-0.00581659,0.339776,1.04733
181,1760,3.303,-0.00675894,0.340166,1.04651
190,1751,3.30286,-0.00736715,0.340176,1.04611
199,1742,3.30403,-0.0052166,0.33954,1.04541
208,1733,3.30376,-0.00525916,0.339941,1.04518
217,1724,3.30298,-0.00594571,0.340342,1.04453
226,1715,3.30301,-0.00647692,0.340335,1.04413
235,1706,3.30262,-0.00743172,0.339951,1.04367
244,1697,3.30397,-0.0052681,0.338916,1.04313
253,1688,3.30328,-0.00642957,0.339336,1.04219
262,1679,3.30343,-0.00689303,0.339332,1.04186
271,1670,3.30313,-0.00736092,0.339332,1.04153
280,1661,3.30466,-0.00526812,0.3383,1.04096
289,1652,3.30392,-0.0058119,0.338706,1.04041
298,1643,3.30362,-0.00635576,0.338707,1.04003
307,1634,3.3033,-0.00697939,0.339131,1.03946
316,1625,3.30467,-0.00474551,0.338102,1.03901
325,1616,3.30447,-0.00529638,0.338104,1.03859
334,1607,3.30393,-0.00627903,0.338517,1.03777
343,1598,3.30348,-0.00689125,0.338924,1.03719
352,1589,3.30361,-0.00684775,0.338506,1.03733
361,1580,3.30502,-0.00527544,0.337896,1.03625
370,1571,3.30457,-0.00525399,0.337887,1.03626
379,1562,3.30438,-0.00626816,0.338307,1.03541
388,1553,3.3038,-0.00637939,0.338294,1.0353
397,1544,3.30378,-0.00684681,0.338281,1.03494
406,1535,3.30311,-0.00755151,0.33869,1.03428
415,1526,3.30444,-0.00531533,0.33766,1.03381
424,1517,3.30441,-0.00580669,0.33767,1.03346
433,1508,3.30417,-0.00636723,0.33766,1.03305
442,1499,3.30369,-0.00687318,0.338088,1.03259
451,1490,3.30318,-0.00749569,0.338075,1.03211
460,1481,3.30488,-0.00522336,0.337057,1.03166
469,1472,3.30469,-0.00584054,0.337043,1.03119
478,1463,3.3048,-0.00643305,0.337465,1.03066
487,1454,3.30406,-0.00686381,0.337468,1.03035
496,1445,3.30564,-0.0046374,0.336424,1.02981
505,1436,3.30474,-0.00576249,0.337255,1.02875
514,1427,3.30475,-0.00630487,0.337248,1.02834
523,1418,3.30413,-0.00687889,0.337244,1.02791
532,1409,3.30424,-0.00739896,0.337242,1.0278
541,1400,3.30556,-0.00475422,0.33621,1.02731
550,1391,3.30554,-0.00572986,0.336197,1.02661
559,1382,3.30441,-0.00645798,0.337025,1.0258
568,1373,3.30436,-0.00693068,0.337285,1.02551
577,1364,3.30412,-0.0074642,0.337037,1.02512
586,1355,3.305,-0.00528697,0.336427,1.02443
595,1346,3.3051,-0.00577489,0.336011,1.02422
604,1337,3.30455,-0.00647401,0.336421,1.02358
613,1328,3.30453,-0.00699928,0.336331,1.02316
622,1319,3.30578,-0.00477486,0.335385,1.02265
631,1310,3.30519,-0.00539681,0.335785,1.02205
640,1301,3.3052,-0.00587439,0.335805,1.02176
649,1292,3.30497,-0.00639007,0.335809,1.02139
658,1283,3.30448,-0.0075305,0.336223,1.02045
667,1274,3.30514,-0.00498204,0.335592,1.01996
676,1265,3.30522,-0.00588067,0.335621,1.0194
685,1256,3.30498,-0.00639753,0.335606,1.019
694,1247,3.30489,-0.00749626,0.335631,1.01829
703,1238,3.30566,-0.00538917,0.33544,1.01741
712,1229,3.305548,-0.00584976,0.335427,1.01705
721,1220,3.30539,-0.00635759,0.335432,1.01671
730,1211,3.30495,-0.00698174,0.335428,1.01625
739,1202,3.30416,-0.00755105,0.335839,1.01593
748,1193,3.30512,-0.0059264,0.33522,1.01455
757,1184,3.30501,-0.00657134,0.335208,1.01408
766,1175,3.30492,-0.00704125,0.335217,1.01375
775,1166,3.30574,-0.00487356,0.334598,1.01302
784,1157,3.30483,-0.00596792,0.335452,1.01201
793,1148,3.30428,-0.00657052,0.335448,1.01155
802,1139,3.30441,-0.00763822,0.335442,1.0108
811,1130,3.30567,-0.00541681,0.334423,1.01026
820,1121,3.30495,-0.00602381,0.334835,1.00967
829,1112,3.30374,-0.00725425,0.335697,1.00854
838,1103,3.30533,-0.00542013,0.334655,1.00771
847,1094,3.30527,-0.00587209,0.334652,1.00738
856,1085,3.30399,-0.00659268,0.335027,1.00697
865,1076,3.30506,-0.00496061,0.334464,1.0056
874,1067,3.30524,-0.00591532,0.334467,1.00494
883,1058,3.30434,-0.0065912,0.334884,1.0043
892,1049,3.30359,-0.00775233,0.335313,1.00335
901,1040,3.30486,-0.00601018,0.334276,1.00243
910,1031,3.30416,-0.00669404,0.334707,1.00182
919,1022,3.3035,-0.0077052,0.335136,1.00099
928,1013,3.30442,-0.00601685,0.334613,0.999857
937,1004,3.30345,-0.00724449,0.335479,0.998767
946,995,3.304904,-0.0054153,0.334345,0.997856
955,986,3.30383,-0.00611905,0.334775,0.997221
964,977,3.30279,-0.00726739,0.335201,0.996283
973,968,3.30411,-0.00562303,0.33461,0.995156
982,959,3.30316,-0.00667069,0.335029,0.994263
991,950,3.30232,-0.00784072,0.335469,0.993318
1000,941,3.30341,-0.00616797,0.334866,0.992197
1009,932,3.30272,-0.00719059,0.335109,0.991483
1018,923,3.30348,-0.00559481,0.334703,0.990158
1027,914,3.30249,-0.0073377,0.335143,0.988817
1036,905,3.30327,-0.00562543,0.334546,0.987705
1045,896,3.30247,-0.00621822,0.334983,0.987147
1054,887,3.30169,-0.00800384,0.335409,0.986
1063,878,3.3029,-0.00569982,0.334372,0.98519
1072,869,3.30198,-0.00742934,0.335263,0.984015
1081,860,3.30248,-0.00572463,0.334667,0.982602
1090,851,3.30203,-0.00689579,0.334668,0.981808
1099,842,3.3025,-0.00568323,0.334513,0.980209
1108,833,3.301442,-0.00695749,0.334953,0.979183
1117,824,3.30243,-0.00517515,0.334374,0.97839
1126,815,3.30096,-0.0070076,0.33527,0.976842
1135,806,3.3005,-0.00813026,0.335277,0.975864
1144,797,3.30112,-0.00692775,0.335139,0.974246
1153,788,3.3002,-0.0081311,0.335838,0.973282
1162,779,3.30116,-0.00632471,0.335004,0.972212
1171,770,3.29965,-0.00822889,0.335918,0.970666
1180,761,3.30104,-0.00631267,0.334854,0.969723
1189,752,3.30111,-0.00518784,0.334736,0.968076
1198,743,3.30004,-0.00668788,0.335183,0.966907
1207,734,3.30053,-0.00523785,0.335063,0.96544
1216,725,3.29933,-0.00707207,0.335494,0.964002
1225,716,3.3001,-0.00529385,0.334914,0.963129
1234,707,3.2989,-0.00771651,0.335841,0.960983
1243,698,3.29939,-0.00591337,0.334801,0.959817
1252,689,3.29845,-0.0076932,0.335696,0.958474
1261,680,3.29916,-0.00647547,0.335607,0.956862
1270,671,3.29756,-0.00837414,0.336063,0.955441
1279,662,3.29783,-0.00713644,0.335468,0.953895
1288,653,3.29848,-0.00593518,0.335351,0.952177
1297,644,3.2974,-0.00720593,0.335818,0.951203
1306,635,3.29803,-0.00601067,0.335238,0.949628
1315,626,3.29642,-0.00793172,0.336187,0.948101
1324,617,3.29737,-0.00673591,0.335659,0.946528
1333,608,3.29748,-0.00446945,0.335041,0.944377
1342,599,3.29647,-0.010996,0.335037,0.942926
1351,590,3.29683,-0.00729278,0.333983,0.940555
1360,581,3.29736,-0.0107269,0.332935,0.938913
1369,572,3.29599,-0.0101102,0.332936,0.93675
1378,563,3.29697,-0.00563012,0.331408,0.935011
1387,554,3.2972,-0.00459587,0.331304,0.933169
1396,545,3.29588,-0.0111679,0.331794,0.931717
1405,536,3.29703,-0.00673647,0.329797,0.929962
1414,527,3.29732,-0.0109106,0.329477,0.926349
1423,518,3.29618,-0.00953737,0.328747,0.92609
1432,509,3.29675,-0.00897172,0.328656,0.924085
1441,500,3.2972,-0.00606676,0.32761,0.922698
1450,491,3.29758,-0.00868201,0.326587,0.920101
1459,482,3.29669,-0.00633575,0.326118,0.917885
1468,473,3.29662,-0.0057612,0.326008,0.915754
1477,464,3.29697,-0.00988083,0.324965,0.913696
1486,455,3.29565,-0.00862031,0.324963,0.911911
1495,446,3.29578,-0.0127537,0.323922,0.909852
1504,437,3.29674,-0.00734436,0.322416,0.90734
1513,428,3.29685,-0.00523388,0.321766,0.905074
1522,419,3.29721,-0.010316,0.321286,0.903585
1531,410,3.29566,-0.00962653,0.321288,0.901437
1540,401,3.29644,-0.00584657,0.31978,0.899164
1549,392,3.29604,-0.0106937,0.319695,0.896433
1558,383,3.29677,-0.0077977,0.318662,0.894772
1567,374,3.29666,-0.00460356,0.318096,0.891845
1576,365,3.29496,-0.0119942,0.318144,0.889998
1585,356,3.29606,-0.00640595,0.31614,0.887677
1594,347,3.29578,-0.0123653,0.316045,0.885575
1603,338,3.29595,-0.00748866,0.315025,0.882536
1612,329,3.29646,-0.0100253,0.313541,0.880364
1621,320,3.29647,-0.00943361,0.313445,0.878284
1630,311,3.29654,-0.0111125,0.312205,0.875371
1639,302,3.29664,-0.0094144,0.311398,0.872769
1648,293,3.29686,-0.0102822,0.309918,0.870308
1657,284,3.29511,-0.0103248,0.30991,0.867666
1666,275,3.29536,-0.00800839,0.309836,0.865257
1675,266,3.29493,-0.00658996,0.309253,0.862617
1684,257,3.29502,-0.0098124,0.308264,0.859922
1693,248,3.29519,-0.00590798,0.307249,0.857513
1702,239,3.29481,-0.010882,0.306697,0.854906
1711,230,3.29521,-0.00750334,0.305693,0.852195
1720,221,3.29498,-0.0118798,0.305167,0.849953
1729,212,3.29488,-0.00762125,0.304139,0.84647
1738,203,3.29402,-0.0125472,0.303353,0.844034
1747,194,3.29444,-0.00580845,0.301184,0.840885
1756,185,3.29447,-0.00581691,0.301557,0.838323
1765,176,3.29399,-0.0119948,0.301475,0.836237
1774,167,3.2942,-0.00693275,0.300009,0.833267
1783,158,3.29342,-0.012154,0.299924,0.830478
1792,149,3.29368,-0.00700075,0.298475,0.827559
1801,140,3.2932,-0.0127159,0.29793,0.824601
1810,131,3.29289,-0.00944795,0.297395,0.82162
1819,122,3.29278,-0.00596602,0.296397,0.818884
1828,113,3.29225,-0.00840137,0.295415,0.81547
1837,104,3.29183,-0.0117954,0.293943,0.812715
1846,95,3.29181,-0.00836947,0.29295,0.809915
1855,86,3.29153,-0.00674266,0.292416,0.807273
1864,77,3.29117,-0.0101278,0.291426,0.804517
1873,68,3.2909,-0.0136252,0.29044,0.801729
1882,59,3.29087,-0.00840392,0.288998,0.798748
1891,50,3.29017,-0.0125879,0.288018,0.795555
1900,41,3.29216,-0.00388072,0.285611,0.792433
1909,32,3.29171,-0.00907952,0.284633,0.789975
1918,23,3.2909,-0.0115974,0.283667,0.786439
1927,14,3.291,-0.00809607,0.282264,0.783818
1936,5,3.29032,-0.00463201,0.281509,0.780998
1938,3,3.28959,-0.0122525,0.281283,0.780624

File: HUST_8-1_cycle_feature_matrix.csv
cycle_number,rul,voltage,current,capacity,charge_capacity
1,1310,3.31701,-0.00261003,0.304316,1.0208
7,1304,3.30163,-0.0071882,0.313454,1.01394
13,1298,3.30366,-0.00531428,0.312063,1.01302
19,1292,3.30409,-0.00659679,0.311624,1.01251
25,1286,3.30591,-0.00473969,0.310399,1.0116
31,1280,3.30601,-0.00538827,0.310049,1.01146
37,1274,3.30578,-0.0060244,0.309959,1.01111
43,1268,3.30504,-0.00677796,0.310391,1.01048
49,1262,3.30456,-0.00737053,0.310391,1.01015
55,1256,3.3062,-0.00495194,0.309164,1.00954
61,1250,3.30598,-0.00557607,0.309165,1.00919
67,1244,3.30529,-0.00633448,0.309605,1.00858
73,1238,3.3056,-0.00675188,0.309163,1.00852
79,1232,3.30524,-0.00738005,0.30916,1.00817
85,1226,3.30702,-0.00487535,0.307928,1.0076
91,1220,3.30665,-0.0056076,0.308366,1.007
97,1214,3.30639,-0.00617968,0.308364,1.00669
103,1208,3.30642,-0.00681378,0.308362,1.00633
109,1202,3.30688,-0.00736868,0.307926,1.00622
115,1196,3.30641,-0.00736454,0.307924,1.00621
121,1190,3.30767,-0.00493975,0.307128,1.0054
127,1184,3.3078,-0.00543181,0.306695,1.00532
133,1178,3.30724,-0.00614309,0.307129,1.00473
139,1172,3.30683,-0.00619638,0.307133,1.00472
145,1166,3.30653,-0.00679198,0.30713,1.00436
151,1160,3.30592,-0.00745562,0.307565,1.00378
157,1154,3.30782,-0.00480382,0.306342,1.00331
163,1148,3.30799,-0.00482484,0.306119,1.00349
169,1142,3.30777,-0.00549808,0.306333,1.00292
175,1136,3.30791,-0.0059977,0.306338,1.00262
181,1130,3.30763,-0.00671653,0.306343,1.00224
187,1124,3.30711,-0.00671377,0.306341,1.00224
193,1118,3.30729,-0.00738735,0.306338,1.00185
199,1112,3.30695,-0.0073776,0.306335,1.00187
205,1106,3.30884,-0.00480547,0.305106,1.0013
211,1100,3.30855,-0.00492674,0.305112,1.00127
217,1094,3.30871,-0.00548385,0.305108,1.00095
223,1088,3.30843,-0.00611814,0.305109,1.00058
229,1082,3.30821,-0.00624869,0.305259,1.00052
235,1076,3.30787,-0.00690306,0.305762,0.999967
241,1070,3.30757,-0.00696022,0.305541,0.999916
247,1064,3.30741,-0.00704685,0.305535,0.99984
253,1058,3.30722,-0.00757755,0.305537,0.99955
259,1052,3.30736,-0.00755631,0.305103,0.999757
265,1046,3.30883,-0.00507958,0.304309,0.998962
271,1040,3.30873,-0.00565295,0.304302,0.998629
277,1034,3.30854,-0.00566753,0.304305,0.998633
283,1028,3.30845,-0.00634418,0.304305,0.998243
289,1022,3.30841,-0.00696319,0.304305,0.997903
295,1016,3.30816,-0.00760991,0.304305,0.997542
301,1010,3.30992,-0.00495663,0.303075,0.997036
307,1004,3.31017,-0.00499145,0.302641,0.997205
313,998,3.30975,-0.0056439,0.303078,0.996642
319,992,3.309468,-0.00628506,0.303157,0.996278
325,986,3.3093,-0.00622897,0.303068,0.996325
331,980,3.30892,-0.00685054,0.302948,0.995964
337,974,3.30878,-0.00743442,0.303072,0.995626
343,968,3.31041,-0.00490188,0.301849,0.995059
349,962,3.31017,-0.00553915,0.301931,0.994705
355,956,3.3098,-0.005555,0.301851,0.994977
361,950,3.30978,-0.00627858,0.301847,0.994288
367,944,3.30884,-0.00692399,0.302278,0.993739
373,938,3.30909,-0.0074521,0.301844,0.993627
379,932,3.31057,-0.00497704,0.301052,0.992826
385,926,3.31067,-0.00490671,0.300621,0.993076
391,920,3.31058,-0.00555526,0.300623,0.992697
397,914,3.30995,-0.006185,0.301047,0.992135
403,908,3.30983,-0.00684784,0.301265,0.991774
409,902,3.31033,-0.00742792,0.30062,0.991611
415,896,3.31153,-0.00501037,0.299826,0.990787
421,890,3.31145,-0.00557481,0.299826,0.990485
427,884,3.31144,-0.0061522,0.299823,0.990152
433,878,3.31133,-0.00607452,0.299391,0.990372
439,872,3.31118,-0.00673869,0.299194,0.989989
445,866,3.31298,-0.00427608,0.298167,0.989381
451,860,3.31226,-0.0049323,0.298604,0.988844
457,854,3.31222,-0.00552842,0.298745,0.988506
463,848,3.31185,-0.00562983,0.298606,0.98845
469,842,3.31153,-0.00626394,0.298602,0.98808
475,836,3.3114,-0.00682459,0.298598,0.987756
481,830,3.31095,-0.00750159,0.298591,0.987354
487,824,3.31257,-0.00505895,0.297371,0.986719
493,818,3.31234,-0.00558885,0.297374,0.986425
499,812,3.31198,-0.0062778,0.297373,0.986044
505,806,3.31118,-0.00687081,0.29801,0.985507
511,800,3.31096,-0.00754433,0.297807,0.985139
517,794,3.31249,-0.00485874,0.296574,0.984618
523,788,3.31219,-0.00555852,0.296576,0.98428
529,782,3.31165,-0.00621189,0.296996,0.983641
535,776,3.3115,-0.00694741,0.297002,0.983225
541,770,3.31312,-0.00440679,0.295772,0.982644
547,764,3.3131,-0.00553595,0.295856,0.982025
553,758,3.31221,-0.0063501,0.296208,0.981367
559,752,3.31244,-0.00692768,0.295774,0.981207
565,746,3.31395,-0.00435445,0.29498,0.980462
571,740,3.31354,-0.0055769,0.294983,0.979769
577,734,3.31323,-0.00614821,0.294984,0.979454
583,728,3.31274,-0.00685982,0.294982,0.979037
589,722,3.31365,-0.00428404,0.294181,0.97825
595,716,3.31353,-0.00559789,0.294185,0.97753
601,710,3.3128,-0.0061255,0.294185,0.977218
607,704,3.31156,-0.00749232,0.295042,0.976077
613,698,3.31358,-0.00487381,0.293377,0.975703
619,692,3.31282,-0.00565353,0.293817,0.975071
625,686,3.31259,-0.00689313,0.293812,0.974351
631,680,3.31248,-0.00753719,0.293815,0.973999
637,674,3.31384,-0.00575727,0.293015,0.972769
643,668,3.31341,-0.00627867,0.293022,0.972493
649,662,3.31304,-0.00754478,0.293019,0.971756
655,656,3.31426,-0.00504316,0.291796,0.971109
661,650,3.31348,-0.00635349,0.292218,0.970179
667,644,3.31235,-0.00706493,0.29265,0.96961
673,638,3.3135,-0.00505385,0.291422,0.968671
679,632,3.31294,-0.00631765,0.292282,0.967568
685,626,3.31251,-0.00702796,0.29242,0.967169
691,620,3.31404,-0.00509275,0.291055,0.966227
697,614,3.31374,-0.00634244,0.291046,0.965485
703,608,3.31281,-0.00772783,0.291482,0.964523
709,602,3.31436,-0.00563724,0.290252,0.96364
715,596,3.3132,-0.00633653,0.290257,0.963247
721,590,3.31185,-0.00777523,0.291119,0.962074
727,584,3.31352,-0.00568252,0.289891,0.961177
733,578,3.31254,-0.00709915,0.29032,0.960198
739,572,3.31439,-0.00514227,0.289098,0.959239
745,566,3.31337,-0.00637521,0.289517,0.958322
751,560,3.31456,-0.00441741,0.288289,0.95734
757,554,3.31358,-0.00588553,0.288866,0.956241
763,548,3.31264,-0.00720093,0.289158,0.9554
769,542,3.31413,-0.0100399,0.287486,0.954399
775,536,3.31367,-0.0104631,0.287485,0.952886
781,530,3.31509,-0.00674929,0.285822,0.951797
787,524,3.31386,-0.0081649,0.286249,0.950807
793,518,3.31263,-0.00957184,0.287112,0.949819
799,512,3.31368,-0.0114502,0.285019,0.948112
805,506,3.31494,-0.00787061,0.283788,0.946763
811,500,3.3151,-0.00649004,0.282922,0.945348
817,494,3.31616,-0.0028191,0.281701,0.944066
823,488,3.31461,-0.011514,0.282125,0.94276
829,482,3.31568,-0.00945741,0.281103,0.941832
835,476,3.31481,-0.00647053,0.28047,0.93987
841,470,3.31608,-0.00342049,0.279247,0.938222
847,464,3.31559,-0.00476911,0.279237,0.937448
853,458,3.31627,-0.0084402,0.278025,0.935816
859,452,3.31543,-0.00809799,0.278024,0.934725
865,446,3.31544,-0.00691448,0.277636,0.932941
871,440,3.31456,-0.00545028,0.277212,0.931221
877,434,3.3155,-0.010865,0.276408,0.929859
883,428,3.31513,-0.00784995,0.275574,0.928103
889,422,3.31605,-0.0114706,0.27393,0.926635
895,416,3.31696,-0.00960101,0.27313,0.925436
901,410,3.31604,-0.00993781,0.273127,0.923957
907,404,3.316,-0.00697805,0.272328,0.922081
913,398,3.31516,-0.00545249,0.271899,0.92055
919,392,3.31607,-0.0116072,0.271101,0.918636
925,386,3.31715,-0.00689206,0.269884,0.916616
931,380,3.31563,-0.00718444,0.26988,0.915181
937,374,3.31651,-0.0041349,0.268657,0.913515
943,368,3.31646,-0.00858934,0.267862,0.91129
949,362,3.31574,-0.00730275,0.26744,0.909839
955,356,3.31719,-0.0109097,0.265815,0.90816
961,350,3.31783,-0.00690542,0.264604,0.905739
967,344,3.31604,-0.0089184,0.265008,0.904426
973,338,3.3161,-0.0076593,0.264615,0.902734
979,332,3.31683,-0.0103543,0.263395,0.900365
985,326,3.31577,-0.00953002,0.262983,0.898409
991,320,3.31684,-0.00709274,0.261766,0.896388
997,314,3.31647,-0.00412346,0.260961,0.894471
1003,308,3.31733,-0.0068554,0.259691,0.892093
1009,302,3.31856,-0.00274896,0.25814,0.88986
1015,296,3.31655,-0.0106453,0.258536,0.887852
1021,290,3.31594,-0.0100167,0.258187,0.885797
1027,284,3.31655,-0.00514856,0.256926,0.883785
1033,278,3.31787,-0.0086653,0.255309,0.881158
1039,272,3.31696,-0.00792268,0.254911,0.879171
1045,266,3.31606,-0.00661285,0.254907,0.877289
1051,260,3.31624,-0.0101068,0.253697,0.874523
1057,254,3.31708,-0.00591397,0.252484,0.8721
1063,248,3.3172,-0.00526351,0.251672,0.870205
1069,242,3.31709,-0.00803431,0.25086,0.867655
1075,236,3.31695,-0.00737396,0.25006,0.865977
1081,230,3.31572,-0.00676246,0.250165,0.863517
1087,224,3.3154,-0.0103034,0.249234,0.860547
1093,218,3.31705,-0.0049069,0.24723,0.857804
1099,212,3.3165,-0.00425088,0.247006,0.855746
1105,206,3.31622,-0.00888451,0.246411,0.853363
1111,200,3.31699,-0.00538313,0.245199,0.850525
1117,194,3.31671,-0.00287418,0.24439,0.848305
1123,188,3.31809,-0.00453729,0.242344,0.845559
1129,182,3.31476,-0.00756643,0.243577,0.843504
1135,176,3.31465,-0.0111406,0.242755,0.840551
1141,170,3.31564,-0.00934254,0.241544,0.838136
1147,164,3.31522,-0.006781,0.240737,0.83594
1153,158,3.31586,-0.0104424,0.239528,0.833138
1159,152,3.3155,-0.00680972,0.238713,0.830169
1165,146,3.31616,-0.0115763,0.237506,0.828133
1171,140,3.31524,-0.00975074,0.237087,0.82538
1177,134,3.3162,-0.0116066,0.235481,0.822379
1183,128,3.3153,-0.0109304,0.235064,0.820352
1189,122,3.31641,-0.00540039,0.233456,0.817332
1195,116,3.31548,-0.0033226,0.233037,0.814684
1201,110,3.3162,-0.00736491,0.231829,0.811744
1207,104,3.31533,-0.0054589,0.231409,0.808992
1213,98,3.31681,-0.00837188,0.229422,0.806954
1219,92,3.31538,-0.00478397,0.229381,0.803557
1225,86,3.31408,-0.00662003,0.229377,0.801375
1231,80,3.31413,-0.00965296,0.228172,0.798929
1237,74,3.31431,-0.00759783,0.227366,0.796604
1243,68,3.31464,-0.0115108,0.226161,0.793565
1249,62,3.31396,-0.00764506,0.225322,0.790627
1255,56,3.31425,-0.00704801,0.224511,0.788734
1261,50,3.31495,-0.00891434,0.222917,0.785737
1267,44,3.31439,-0.00506056,0.2221,0.782774
1273,38,3.31465,-0.00437695,0.221279,0.780894
1279,32,3.31526,-0.00823634,0.220083,0.778119
1285,26,3.31485,-0.00369818,0.219427,0.775428
1291,20,3.31435,-0.0114748,0.218816,0.77307
1297,14,3.31552,-0.00361471,0.216845,0.76983
1303,8,3.31592,-0.00873821,0.215645,0.767745
1308,3,3.31275,-0.011903,0.216787,0.765776