Folder: MyBatteryML/hust_correlation_analysis/matrices (part 15)

File: HUST_4-6_cycle_feature_matrix.csv
cycle_number,rul,voltage,current,capacity,charge_capacity
1,1382,3.31781,-0.00832406,0.305808,1.0178
8,1375,3.30605,-0.0112801,0.310134,1.01162
15,1368,3.3079,-0.0103699,0.308903,1.01018
22,1361,3.3075,-0.0115435,0.30847,1.0097
29,1354,3.30911,-0.00963744,0.307241,1.00882
36,1347,3.30881,-0.0108683,0.307233,1.00809
43,1340,3.30831,-0.0116119,0.307226,1.00765
50,1333,3.31004,-0.00973349,0.305994,1.00672
57,1326,3.3096,-0.0102773,0.305988,1.0064
64,1319,3.30929,-0.0109544,0.305983,1.00599
71,1312,3.31095,-0.00910872,0.304762,1.00507
78,1305,3.31083,-0.00975497,0.304772,1.00474
85,1298,3.31018,-0.0109606,0.305197,1.00384
92,1291,3.30992,-0.0115719,0.305183,1.00347
99,1284,3.31138,-0.00907351,0.303973,1.00294
106,1277,3.31094,-0.00973505,0.303969,1.00254
113,1270,3.31069,-0.0104737,0.3044,1.00194
120,1263,3.3103,-0.0110777,0.304392,1.00158
127,1256,3.31159,-0.00923316,0.303609,1.00049
134,1249,3.31138,-0.00984984,0.303602,1.00012
141,1242,3.31138,-0.0104378,0.3036,0.999774
148,1235,3.311,-0.011084,0.303615,0.999445
155,1228,3.3106,-0.0115916,0.303605,0.999145
162,1221,3.31201,-0.00921087,0.30282,0.99834
169,1214,3.31194,-0.0098087,0.30282,0.998008
176,1207,3.31175,-0.010375,0.302817,0.997671
183,1200,3.31103,-0.0110605,0.303248,0.997092
190,1193,3.31099,-0.0116647,0.303253,0.996775
197,1186,3.31254,-0.00887974,0.302035,0.996348
204,1179,3.31213,-0.00923461,0.302299,0.996156
211,1172,3.31173,-0.00985503,0.302454,0.995603
218,1165,3.31162,-0.0104696,0.302454,0.995245
225,1158,3.3114,-0.0110763,0.30245,0.994904
232,1151,3.3106,-0.0117913,0.302881,0.994297
239,1144,3.31085,-0.0117283,0.302424,0.994704
246,1137,3.31232,-0.00914808,0.30163,0.993716
253,1130,3.31217,-0.00927182,0.301203,0.993831
260,1123,3.31158,-0.0100188,0.301641,0.993233
267,1116,3.31146,-0.0105918,0.301636,0.992887
274,1109,3.31095,-0.0118415,0.302069,0.992027
281,1102,3.31248,-0.00868444,0.300838,0.991795
288,1095,3.31229,-0.00935286,0.300839,0.991403
295,1088,3.3119,-0.0105701,0.30127,0.990542
302,1081,3.31151,-0.0106373,0.301276,0.990517
309,1074,3.31148,-0.0112436,0.301267,0.990129
316,1067,3.31293,-0.00867474,0.300034,0.988255
323,1060,3.31191,-0.0100212,0.300908,0.988468
330,1053,3.31191,-0.0106863,0.300906,0.988088
337,1046,3.31177,-0.0112656,0.300908,0.987749
344,1039,3.31074,-0.0119773,0.301349,0.987182
351,1032,3.31257,-0.00943498,0.300118,0.986598
358,1025,3.31236,-0.00995627,0.300111,0.98628
365,1018,3.3115,-0.0107143,0.300464,0.985694
372,1011,3.31142,-0.0111779,0.300549,0.985424
379,1004,3.31123,-0.0118848,0.300556,0.985033
386,997,3.31217,-0.00943417,0.299757,0.98421
393,990,3.31209,-0.0100032,0.299762,0.98389
400,983,3.31159,-0.0107392,0.300192,0.981774
407,976,3.31099,-0.0114111,0.300194,0.982899
414,969,3.31033,-0.0120201,0.300624,0.982362
421,962,3.312,-0.010126,0.299844,0.981517
428,955,3.31153,-0.0106959,0.299843,0.980952
435,948,3.31082,-0.0113955,0.300281,0.98036
442,941,3.31254,-0.00882005,0.299056,0.979787
449,934,3.3118,-0.00981178,0.299493,0.97906
456,927,3.31149,-0.0101747,0.299484,0.978827
463,920,3.31071,-0.0114404,0.299909,0.977898
470,913,3.31017,-0.0120818,0.299991,0.977534
477,906,3.31198,-0.0095063,0.298795,0.976943
484,899,3.31099,-0.010325,0.299118,0.976302
491,892,3.31099,-0.0108331,0.299189,0.975758
498,885,3.31019,-0.0121075,0.299559,0.975117
505,878,3.31175,-0.00956803,0.298316,0.974484
512,871,3.31157,-0.0101388,0.298318,0.97417
519,864,3.31011,-0.0116085,0.299204,0.972996
526,857,3.31188,-0.00898567,0.297969,0.972432
533,850,3.31113,-0.0102784,0.298397,0.971474
540,843,3.31069,-0.0109447,0.298399,0.971106
547,836,3.31018,-0.0122469,0.298857,0.970258
554,829,3.31128,-0.00960662,0.297606,0.969637
561,822,3.31088,-0.0110516,0.298055,0.968646
568,815,3.31027,-0.0115979,0.298059,0.968366
575,808,3.31125,-0.00973404,0.297714,0.967016
582,801,3.311,-0.010895,0.297712,0.96637
589,794,3.30993,-0.0120171,0.298161,0.965578
596,787,3.31106,-0.00946235,0.297631,0.964775
603,780,3.31025,-0.0108178,0.297828,0.963613
610,773,3.30993,-0.0120794,0.297824,0.963126
617,766,3.30964,-0.0110308,0.297242,0.962581
624,759,3.31055,-0.0105359,0.297634,0.96177
631,752,3.3097,-0.0118488,0.297472,0.960836
638,745,3.31131,-0.00916443,0.296292,0.960245
645,738,3.31015,-0.0105104,0.296677,0.959323
652,731,3.30991,-0.0114821,0.296678,0.958784
659,724,3.31084,-0.00925068,0.295869,0.957764
666,717,3.31058,-0.0105406,0.295872,0.957036
673,710,3.3101,-0.0102801,0.295739,0.955854
680,703,3.31091,-0.00979989,0.295525,0.954992
687,696,3.30985,-0.0112421,0.295973,0.954025
694,689,3.30919,-0.0107182,0.296449,0.952992
701,682,3.31052,-0.00901104,0.295045,0.951676
708,675,3.30987,-0.00991,0.295044,0.951186
715,668,3.31058,-0.00965734,0.294849,0.95022
722,661,3.3096,-0.011119,0.2953,0.949231
729,654,3.309,-0.0120874,0.295282,0.94865
736,647,3.31001,-0.0100221,0.294496,0.947546
743,640,3.30936,-0.0120935,0.29495,0.946215
750,633,3.30994,-0.0094646,0.294154,0.945382
757,626,3.30946,-0.0115134,0.29461,0.944074
764,619,3.30907,-0.0108733,0.29402,0.943298
771,612,3.30975,-0.0108319,0.293816,0.942182
778,605,3.30842,-0.0122116,0.294263,0.939887
785,598,3.30951,-0.0101716,0.29347,0.940056
792,591,3.30855,-0.0122921,0.293938,0.938727
799,584,3.30959,-0.0102915,0.293134,0.937765
806,577,3.30833,-0.011658,0.293588,0.936573
813,570,3.30984,-0.00887156,0.292196,0.934668
820,563,3.3085,-0.0117274,0.293266,0.934083
827,556,3.30918,-0.0103881,0.292467,0.932497
834,549,3.30847,-0.0125366,0.292926,0.931145
841,542,3.30926,-0.0102618,0.292137,0.930111
848,535,3.30779,-0.0125528,0.292613,0.928701
855,528,3.30916,-0.0111078,0.291804,0.92714
862,521,3.30769,-0.0125716,0.292283,0.926201
869,514,3.30809,-0.0112517,0.291957,0.924412
876,507,3.3091,-0.00985208,0.291169,0.922877
883,500,3.30774,-0.0119903,0.291752,0.921524
890,493,3.30804,-0.0106674,0.291309,0.919723
897,486,3.30657,-0.012791,0.291778,0.918397
904,479,3.30754,-0.0114345,0.291612,0.916816
911,472,3.30645,-0.0118138,0.290982,0.915358
918,465,3.30682,-0.017654,0.290182,0.913766
925,458,3.30773,-0.0143428,0.288917,0.912181
932,451,3.30669,-0.0136764,0.288922,0.910041
939,444,3.30761,-0.0103586,0.287641,0.908414
946,437,3.30753,-0.0163683,0.287317,0.906604
953,430,3.30624,-0.0173793,0.287327,0.90485
960,423,3.30773,-0.0121761,0.285561,0.903121
967,416,3.308358,-0.0162657,0.284289,0.901442
974,409,3.306871,-0.0165708,0.284278,0.900015
981,402,3.3076,-0.0141154,0.283492,0.897782
988,395,3.30883,-0.00926086,0.281744,0.895857
995,388,3.3064,-0.0190075,0.282677,0.894259
1002,381,3.30739,-0.0159032,0.281403,0.892292
1009,374,3.30775,-0.0134665,0.280614,0.890198
1016,367,3.30903,-0.00824696,0.278867,0.888459
1023,360,3.30705,-0.0165248,0.279339,0.886623
1030,353,3.30753,-0.0141064,0.278546,0.884325
1037,346,3.30845,-0.0109026,0.277263,0.882584
1044,339,3.30655,-0.0196484,0.277737,0.880533
1051,332,3.30774,-0.0144606,0.275991,0.878733
1058,325,3.30795,-0.0118784,0.275187,0.876489
1065,318,3.30878,-0.00874805,0.273927,0.874972
1072,311,3.3072,-0.0155849,0.273922,0.872587
1079,304,3.30835,-0.0103256,0.272175,0.870784
1086,297,3.30796,-0.0174525,0.271835,0.868504
1093,290,3.30886,-0.0142526,0.270563,0.866767
1100,283,3.30746,-0.0134216,0.27056,0.864685
1107,276,3.30796,-0.0182385,0.269281,0.862675
1114,269,3.3082,-0.0156846,0.268481,0.860426
1121,262,3.30895,-0.0105284,0.267219,0.858403
1128,255,3.307,-0.0199083,0.26768,0.856121
1135,248,3.30776,-0.0165165,0.266405,0.854417
1142,241,3.30789,-0.0138627,0.265596,0.852187
1149,234,3.30927,-0.0093285,0.263942,0.849988
1156,227,3.30902,-0.0162618,0.264132,0.847933
1163,220,3.30737,-0.0157986,0.263519,0.845644
1170,213,3.30755,-0.0128547,0.262711,0.843548
1177,206,3.30824,-0.0178391,0.261441,0.841536
1184,199,3.30886,-0.0132441,0.260171,0.839187
1191,192,3.30905,-0.0106466,0.259365,0.836902
1198,185,3.30675,-0.0203783,0.259821,0.834548
1205,178,3.30749,-0.0158037,0.258287,0.832088
1212,171,3.30837,-0.0129064,0.257292,0.830219
1219,164,3.30833,-0.0181336,0.256479,0.82797
1226,157,3.30853,-0.0154583,0.255667,0.825711
1233,150,3.30903,-0.0114706,0.254397,0.822995
1240,143,3.30924,-0.00883019,0.253593,0.820731
1247,136,3.30802,-0.016325,0.252854,0.818559
1254,129,3.30866,-0.0119755,0.251582,0.816006
1261,122,3.30867,-0.0176779,0.250764,0.81356
1268,115,3.30886,-0.0148349,0.249939,0.811352
1275,108,3.30871,-0.0144612,0.249878,0.809147
1282,101,3.30901,-0.0100559,0.248613,0.806611
1289,94,3.30923,-0.0176985,0.2478,0.80455
1296,87,3.30759,-0.0149674,0.247036,0.802167
1303,80,3.30835,-0.0109538,0.245745,0.799405
1310,73,3.30788,-0.0187805,0.245704,0.797182
1317,66,3.30811,-0.0167821,0.244893,0.794591
1324,59,3.30963,-0.0101739,0.242389,0.792039
1331,52,3.30893,-0.017604,0.242343,0.79001
1338,45,3.30938,-0.016339,0.241532,0.787073
1345,38,3.30971,-0.0118558,0.240264,0.784522
1352,31,3.30982,-0.019739,0.239563,0.782428
1359,24,3.31014,-0.0156757,0.238283,0.779648
1366,17,3.31052,-0.0136768,0.237341,0.777019
1373,10,3.31085,-0.0199007,0.236085,0.774652
1380,3,3.31144,-0.0165877,0.234818,0.771618

File: HUST_4-7_cycle_feature_matrix.csv
cycle_number,rul,voltage,current,capacity,charge_capacity
1,2218,3.31546,-0.00458523,0.348213,1.07447
12,2207,3.3053,-0.00614847,0.353194,1.0666
23,2196,3.30529,-0.00812991,0.353189,1.06524
34,2185,3.3063,-0.00808664,0.352499,1.06427
45,2174,3.30572,-0.00955448,0.352432,1.06312
56,2163,3.30652,-0.00816115,0.351805,1.06192
67,2152,3.30631,-0.00975429,0.351825,1.06091
78,2141,3.30761,-0.0081246,0.350829,1.05994
89,2130,3.30659,-0.00926478,0.351193,1.05909
100,2119,3.30677,-0.00969298,0.350735,1.05887
111,2108,3.30796,-0.00811672,0.350124,1.05785
122,2097,3.30738,-0.00924543,0.350532,1.05687
133,2086,3.30618,-0.00980543,0.351,1.05645
144,2075,3.30799,-0.00817272,0.350017,1.05554
155,2064,3.30751,-0.00877643,0.350383,1.05505
166,2053,3.30695,-0.00931943,0.350466,1.05464
177,2042,3.30821,-0.00719618,0.349303,1.05405
188,2031,3.30835,-0.00822743,0.349301,1.05335
199,2020,3.30814,-0.00876441,0.349891,1.05295
210,2009,3.30766,-0.00881979,0.349211,1.05269
221,1998,3.30725,-0.00946969,0.34921,1.05223
232,1987,3.307,-0.0100394,0.349217,1.05185
243,1976,3.30888,-0.00775585,0.347732,1.05157
254,1965,3.30888,-0.00885729,0.347754,1.05089
265,1954,3.30824,-0.00939379,0.348158,1.05031
276,1943,3.30822,-0.00984368,0.347745,1.05021
287,1932,3.30909,-0.00776654,0.347117,1.04946
298,1921,3.30883,-0.0083533,0.347739,1.04913
309,1910,3.30869,-0.00888614,0.347131,1.04874
320,1899,3.30874,-0.00986379,0.347164,1.04815
331,1888,3.31003,-0.00764753,0.346084,1.0476
342,1877,3.31,-0.00822781,0.346107,1.0473
353,1866,3.30966,-0.00877965,0.346083,1.04681
364,1855,3.30953,-0.00785415,0.345704,1.04643
375,1844,3.30923,-0.00977149,0.346114,1.04624
386,1833,3.31049,-0.00672446,0.345083,1.04506
397,1822,3.30971,-0.00839141,0.345459,1.04493
408,1811,3.30993,-0.00886085,0.345042,1.04478
419,1800,3.30926,-0.00948333,0.345523,1.04414
430,1789,3.3114,-0.00768358,0.344233,1.04356
441,1778,3.31082,-0.00831837,0.344493,1.04295
452,1767,3.31092,-0.00868762,0.344065,1.04287
463,1756,3.31015,-0.00940989,0.344386,1.04209
474,1745,3.30973,-0.00991925,0.344407,1.04214
485,1734,3.31166,-0.0082914,0.34337,1.04101
496,1723,3.3116,-0.00729259,0.342974,1.04061
507,1712,3.31062,-0.00800572,0.343411,1.04002
518,1701,3.3123,-0.00630856,0.342366,1.03917
529,1690,3.31187,-0.00689607,0.342366,1.03877
540,1679,3.31198,-0.00732241,0.341379,1.0386
551,1668,3.31181,-0.00791641,0.342518,1.03815
562,1657,3.31138,-0.00854712,0.34191,1.0377
573,1646,3.3129,-0.0062997,0.340855,1.03718
584,1635,3.31232,-0.00743698,0.341879,1.03626
595,1624,3.31161,-0.00801439,0.341727,1.03579
606,1613,3.31333,-0.00578781,0.340247,1.03541
617,1602,3.31304,-0.00636574,0.340208,1.03489
628,1591,3.3124,-0.00752134,0.340647,1.03399
639,1580,3.31224,-0.00804245,0.340643,1.03362
650,1569,3.31254,-0.00844999,0.340223,1.03351
661,1558,3.31383,-0.0064348,0.339159,1.03281
672,1547,3.31346,-0.00698608,0.339139,1.03236
683,1536,3.31302,-0.00801527,0.339585,1.03159
694,1525,3.31407,-0.00733871,0.338926,1.03106
705,1514,3.31418,-0.00679535,0.338532,1.03034
716,1503,3.31372,-0.00739037,0.338531,1.02993
727,1492,3.31257,-0.00861318,0.339401,1.02885
738,1481,3.31449,-0.00639851,0.337908,1.02841
749,1470,3.31388,-0.00756503,0.338328,1.02745
760,1459,3.31337,-0.00812225,0.33831,1.02702
771,1448,3.3149,-0.0063802,0.337277,1.02618
782,1437,3.31402,-0.00709063,0.337677,1.02549
793,1426,3.31379,-0.00798701,0.337698,1.02492
804,1415,3.31472,-0.00648794,0.337047,1.02368
815,1404,3.31368,-0.00758109,0.337921,1.02269
826,1393,3.3137,-0.00806421,0.337476,1.02246
837,1382,3.31459,-0.00656201,0.336856,1.02128
848,1371,3.31379,-0.00753734,0.33729,1.02048
859,1360,3.31317,-0.0085922,0.33773,1.01966
870,1349,3.31498,-0.00648367,0.336221,1.01913
881,1338,3.31409,-0.00748904,0.336664,1.01828
892,1327,3.31361,-0.00825218,0.336628,1.01765
903,1316,3.31454,-0.00662422,0.335999,1.01652
914,1305,3.31409,-0.00863634,0.336413,1.01627
925,1294,3.31364,-0.00880918,0.337032,1.01489
936,1283,3.31485,-0.00664336,0.335375,1.01427
947,1272,3.31407,-0.00765147,0.335814,1.01346
958,1261,3.3137,-0.00873434,0.335807,1.01266
969,1250,3.31454,-0.00704801,0.33518,1.0116
980,1239,3.31377,-0.00830435,0.335627,1.01064
991,1228,3.31457,-0.00661595,0.335012,1.00958
1002,1217,3.31403,-0.00759909,0.335083,1.00888
1013,1206,3.31336,-0.00881069,0.335444,1.00794
1024,1195,3.31428,-0.00703642,0.334818,1.00688
1035,1184,3.31393,-0.00827416,0.335083,1.0061
1046,1173,3.31485,-0.00663433,0.334373,1.00493
1057,1162,3.31376,-0.00767271,0.334615,1.00402
1068,1151,3.3134,-0.00882147,0.334604,1.00319
1079,1140,3.31462,-0.00701757,0.334151,1.0023
1090,1129,3.31349,-0.00933815,0.334386,1.00165
1101,1118,3.31459,-0.0066529,0.333337,1.00006
1112,1107,3.31381,-0.00925826,0.333745,0.999361
1123,1096,3.31401,-0.00673837,0.333582,0.99744
1134,1085,3.31296,-0.00939811,0.335039,0.996601
1145,1074,3.3141,-0.00675324,0.333408,0.995049
1156,1063,3.31361,-0.00792891,0.333415,0.994259
1167,1052,3.3136,-0.0110066,0.333252,0.992437
1178,1041,3.3129,-0.0121852,0.33323,0.991578
1189,1030,3.31418,-0.00808194,0.331781,0.989881
1200,1019,3.31308,-0.00938495,0.332202,0.988794
1211,1008,3.31349,-0.0114557,0.331142,0.986594
1222,997,3.31275,-0.0122743,0.331108,0.985916
1233,986,3.31338,-0.00964997,0.330519,0.984212
1244,975,3.3123,-0.00863812,0.330491,0.982455
1255,964,3.31341,-0.0115847,0.329047,0.980968
1266,953,3.312,-0.0119226,0.329456,0.979256
1277,942,3.31231,-0.0108936,0.329288,0.977549
1288,931,3.31277,-0.00689602,0.328223,0.975442
1299,920,3.31148,-0.0130771,0.328206,0.973869
1310,909,3.3123,-0.0103093,0.327169,0.972325
1321,898,3.31333,-0.00612129,0.325701,0.970581
1332,887,3.31145,-0.0071493,0.326567,0.968287
1343,876,3.31156,-0.0124226,0.326402,0.966327
1354,865,3.3117,-0.011288,0.326238,0.964715
1365,854,3.31083,-0.0101069,0.325804,0.963015
1376,843,3.31088,-0.012477,0.324721,0.960534
1387,832,3.31157,-0.00890757,0.323626,0.958031
1398,821,3.31234,-0.00631207,0.322633,0.956446
1409,810,3.31047,-0.00726099,0.323477,0.954149
1420,799,3.31087,-0.0110075,0.322453,0.95223
1431,788,3.3107,-0.00897544,0.322273,0.949844
1442,777,3.31144,-0.0068609,0.321255,0.94786
1453,766,3.3093,-0.0123269,0.321671,0.945408
1464,755,3.30991,-0.0101673,0.320636,0.943407
1475,744,3.31002,-0.00815029,0.320025,0.941124
1486,733,3.30973,-0.011064,0.319416,0.938268
1497,722,3.30987,-0.00917019,0.318798,0.935878
1508,711,3.31064,-0.00547297,0.317317,0.93366
1519,700,3.31013,-0.0100026,0.317081,0.930937
1530,689,3.30854,-0.0109996,0.317602,0.9289
1541,678,3.30844,-0.00794231,0.317004,0.925992
1552,667,3.30848,-0.0133831,0.316394,0.924158
1563,656,3.3088,-0.00985392,0.315366,0.921688
1574,645,3.30903,-0.00669327,0.314324,0.918955
1585,634,3.30861,-0.0128798,0.31463,0.916486
1596,623,3.3086,-0.0108526,0.314061,0.914147
1607,612,3.30889,-0.00765435,0.312979,0.911441
1618,601,3.3089,-0.00551493,0.31238,0.909203
1629,590,3.30874,-0.0101929,0.311786,0.906622
1640,579,3.30859,-0.00710918,0.311194,0.90367
1651,568,3.30857,-0.0113161,0.310621,0.901451
1662,557,3.30711,-0.0111856,0.310156,0.898992
1673,546,3.3069,-0.00815913,0.309638,0.895962
1684,535,3.30673,-0.0144042,0.309434,0.893724
1695,524,3.30684,-0.0106789,0.308384,0.891233
1706,513,3.30659,-0.00914312,0.308268,0.888566
1717,502,3.30676,-0.00692215,0.307669,0.88633
1728,491,3.30699,-0.0101225,0.306202,0.88368
1739,480,3.30695,-0.0132515,0.305149,0.88088
1750,469,3.30719,-0.0094486,0.304106,0.87841
1761,458,3.3073,-0.0078579,0.303528,0.875844
1772,447,3.30703,-0.0121059,0.302939,0.873594
1783,436,3.30727,-0.0104845,0.302371,0.871046
1794,425,3.30743,-0.006623,0.301332,0.868615
1805,414,3.30559,-0.00828896,0.301786,0.866193
1816,403,3.30544,-0.0124981,0.301199,0.863999
1827,392,3.30561,-0.00926923,0.300182,0.861207
1838,381,3.30515,-0.0142524,0.300046,0.85845
1849,370,3.30568,-0.0103431,0.298568,0.856142
1860,359,3.30607,-0.00699788,0.297552,0.853395
1871,348,3.30581,-0.0113944,0.296956,0.851066
1882,337,3.30612,-0.00972207,0.296629,0.848568
1893,326,3.30667,-0.00572171,0.294925,0.846264
1904,315,3.30611,-0.0107266,0.294814,0.843581
1915,304,3.30614,-0.00679052,0.295117,0.842114
1926,293,3.30395,-0.0151468,0.29556,0.839698
1937,282,3.30441,-0.0101102,0.294114,0.836745
1948,271,3.30393,-0.0144998,0.293519,0.834476
1959,260,3.30466,-0.00940147,0.292112,0.831655
1970,249,3.30483,-0.0137606,0.291077,0.829494
1981,238,3.30476,-0.0105399,0.290533,0.826572
1992,227,3.30511,-0.00809192,0.28951,0.824524
2003,216,3.3051,-0.00750597,0.289394,0.82252
2014,205,3.3046,-0.0126218,0.28928,0.81982
2025,194,3.30308,-0.0118407,0.288826,0.817733
2036,183,3.30347,-0.00853606,0.287843,0.81495
2047,172,3.30363,-0.00847057,0.285507,0.811823
2058,161,3.30339,-0.0147049,0.285381,0.8098
2069,150,3.30397,-0.0104634,0.283966,0.807664
2080,139,3.30372,-0.00821382,0.283367,0.805281
2091,128,3.30373,-0.00996517,0.281961,0.802304
2102,117,3.30423,-0.00585034,0.280495,0.799643
2113,106,3.30363,-0.0110222,0.279927,0.797537
2124,95,3.30159,-0.0103356,0.279925,0.795013
2135,84,3.30203,-0.00957819,0.279374,0.793248
2146,73,3.3012,-0.0131111,0.278342,0.789106
2157,62,3.30151,-0.00900003,0.277402,0.787953
2168,51,3.30098,-0.0141101,0.276863,0.785467
2179,40,3.30134,-0.00996458,0.276012,0.783133
2190,29,3.30137,-0.0127445,0.274017,0.780801
2201,18,3.30105,-0.00760508,0.272598,0.777666
2212,7,3.3009,-0.00865031,0.270757,0.775069
2216,3,3.30001,-0.00831923,0.270754,0.773898