Folder: MyBatteryML/hust_correlation_analysis/matrices (part 9)

File: HUST_3-2_cycle_feature_matrix.csv
cycle_number,rul,voltage,current,capacity,charge_capacity
1,2285,3.32202,0.014119,0.277543,1.02428
12,2274,3.30978,-0.0216166,0.289572,1.0087
23,2263,3.3118,-0.0225607,0.287574,1.01474
34,2252,3.3152,-0.0208682,0.284543,1.0172
45,2241,3.3155,-0.0208515,0.283678,1.01767
56,2230,3.31586,-0.0219265,0.283234,1.01759
67,2219,3.31689,-0.0201622,0.282281,1.01612
78,2208,3.31613,-0.0232276,0.282903,1.01567
89,2197,3.31784,-0.0202312,0.280862,1.01427
100,2186,3.31707,-0.0225583,0.281692,1.0139
111,2175,3.31798,-0.0196675,0.28031,1.01223
122,2164,3.31736,-0.02108,0.281141,1.01105
133,2153,3.31595,-0.0224614,0.281572,1.01016
144,2142,3.31757,-0.0204879,0.281169,1.00901
155,2131,3.31644,-0.0211885,0.281003,1.00818
166,2120,3.31576,-0.0225457,0.281445,1.00757
177,2109,3.31675,-0.0206338,0.280887,1.00614
188,2098,3.31534,-0.0221653,0.281758,1.00499
199,2087,3.3153,-0.022681,0.281756,1.00473
210,2076,3.31609,-0.0201268,0.280771,1.00383
221,2065,3.3159,-0.0214283,0.281193,1.00295
232,2054,3.31474,-0.0222135,0.281993,1.00233
243,2043,3.31632,-0.0201932,0.280642,1.00121
254,2032,3.31539,-0.0209483,0.28105,1.00051
265,2021,3.31467,-0.023146,0.281876,1.00011
276,2010,3.314,-0.024047,0.281894,0.999747
287,1999,3.31592,-0.0213316,0.280466,0.999141
298,1988,3.31426,-0.0228718,0.281356,0.998002
309,1977,3.31479,-0.0234358,0.281343,0.9977
320,1966,3.31316,-0.024888,0.281797,0.996845
331,1955,3.31513,-0.0222715,0.281167,0.995698
342,1944,3.31404,-0.0237313,0.281338,0.995008
353,1933,3.31398,-0.024294,0.281243,0.994776
364,1922,3.31336,-0.0249965,0.281236,0.994424
375,1911,3.31462,-0.0213346,0.280262,0.992811
386,1900,3.31465,-0.0219458,0.280254,0.992503
397,1889,3.31324,-0.022747,0.280701,0.991912
408,1878,3.31536,-0.0206285,0.279711,0.990802
419,1867,3.31479,-0.0213704,0.279706,0.990438
430,1856,3.3133,-0.0222387,0.280607,0.989605
441,1845,3.31354,-0.0228292,0.280595,0.989292
452,1834,3.31481,-0.0209223,0.279833,0.988109
463,1823,3.31368,-0.0216262,0.280066,0.98757
474,1812,3.31385,-0.0222192,0.280053,0.98725
485,1801,3.31324,-0.0230428,0.280623,0.986732
496,1790,3.31158,-0.0237679,0.280934,0.986013
507,1779,3.31435,-0.0208316,0.279046,0.985746
518,1768,3.31397,-0.0216377,0.279486,0.9851
529,1757,3.31275,-0.0231254,0.280025,0.984165
540,1746,3.31185,-0.0239131,0.280395,0.983631
551,1735,3.31388,-0.0210419,0.278935,0.983019
562,1724,3.31328,-0.0226604,0.279844,0.981831
573,1713,3.31249,-0.0233065,0.27984,0.981541
584,1702,3.31203,-0.0239459,0.279824,0.981436
595,1691,3.31325,-0.0213021,0.278848,0.980347
606,1680,3.31307,-0.0219123,0.278826,0.980006
617,1669,3.31273,-0.0233972,0.279296,0.979153
628,1658,3.31398,-0.0205261,0.2783,0.978339
639,1647,3.31318,-0.0213905,0.278754,0.977707
650,1636,3.31252,-0.0228635,0.279216,0.976851
661,1625,3.31188,-0.0235596,0.279225,0.97646
672,1614,3.31254,-0.0216494,0.278673,0.973568
683,1603,3.31241,-0.0222968,0.278666,0.974712
694,1592,3.31193,-0.0228912,0.27866,0.974426
705,1581,3.31093,-0.0237952,0.279116,0.973778
716,1570,3.31247,-0.0216509,0.278107,0.972583
727,1559,3.31196,-0.0223384,0.278097,0.972259
738,1548,3.3108,-0.0239127,0.279027,0.97111
749,1537,3.31043,-0.0246728,0.279021,0.970753
760,1526,3.31194,-0.0226633,0.278023,0.969551
771,1515,3.3118,-0.0232214,0.278026,0.969313
782,1504,3.31093,-0.0246736,0.278479,0.968405
793,1493,3.31224,-0.0218641,0.277451,0.96744
804,1482,3.31132,-0.0234358,0.277923,0.966542
815,1471,3.31067,-0.0241936,0.277911,0.966152
826,1460,3.31137,-0.0221235,0.277601,0.964742
837,1449,3.31126,-0.0228312,0.277376,0.96442
848,1438,3.31098,-0.0242263,0.277365,0.963776
859,1427,3.31164,-0.0220547,0.276817,0.96233
870,1416,3.31099,-0.0229167,0.276797,0.961884
881,1405,3.31013,-0.0243701,0.277293,0.961122
892,1394,3.31178,-0.022193,0.276257,0.959837
903,1383,3.31059,-0.023887,0.276733,0.959124
914,1372,3.30958,-0.0253982,0.277208,0.958007
925,1361,3.3109,-0.0224423,0.276184,0.957102
936,1350,3.30963,-0.0240189,0.276665,0.956202
947,1339,3.30917,-0.0255393,0.277135,0.955306
958,1328,3.31,-0.0233627,0.276108,0.954043
969,1317,3.3092,-0.0249137,0.276583,0.953136
980,1306,3.31015,-0.0226986,0.275549,0.951877
991,1295,3.30971,-0.0233568,0.275533,0.951555
1002,1284,3.30802,-0.0258398,0.276506,0.950055
1013,1273,3.31,-0.0227317,0.274989,0.949433
1024,1262,3.30864,-0.0252506,0.275969,0.947935
1035,1251,3.30946,-0.0229287,0.274931,0.946699
1046,1240,3.30848,-0.0244952,0.275401,0.945763
1057,1229,3.30765,-0.0261562,0.275895,0.944852
1068,1218,3.30877,-0.0239844,0.274858,0.943563
1079,1207,3.30764,-0.0255027,0.275425,0.942645
1090,1196,3.30848,-0.0232579,0.274515,0.941392
1101,1185,3.30748,-0.0249264,0.274799,0.940492
1112,1174,3.30838,-0.0235177,0.274256,0.938657
1123,1163,3.30715,-0.0251819,0.274756,0.937738
1134,1152,3.30654,-0.026622,0.274739,0.937099
1145,1141,3.30809,-0.024279,0.273719,0.935955
1156,1130,3.30664,-0.025912,0.274197,0.934983
1167,1119,3.30739,-0.0245726,0.27364,0.933042
1178,1108,3.30634,-0.026241,0.274134,0.932347
1189,1097,3.30734,-0.0239008,0.273087,0.930847
1200,1086,3.30682,-0.0253373,0.273076,0.930238
1211,1075,3.30739,-0.0240272,0.272552,0.928384
1222,1064,3.30606,-0.0256085,0.273033,0.927426
1233,1053,3.30503,-0.0273072,0.273527,0.926468
1244,1042,3.30577,-0.0258823,0.272998,0.924624
1255,1031,3.30501,-0.0273836,0.272989,0.923998
1266,1020,3.30597,-0.0250389,0.271661,0.922741
1277,1009,3.3042,-0.027607,0.272951,0.921192
1288,998,3.30542,-0.0253277,0.271904,0.919909
1299,987,3.30432,-0.0270751,0.272411,0.918958
1310,976,3.30545,-0.0254,0.271365,0.91743
1321,965,3.30371,-0.0280217,0.272382,0.915856
1332,954,3.30464,-0.0257144,0.271333,0.914566
1343,943,3.30404,-0.0272137,0.271335,0.915272
1354,932,3.30478,-0.0258253,0.270789,0.912046
1365,921,3.30308,-0.0284891,0.27182,0.910467
1376,910,3.30467,-0.0259399,0.270247,0.909527
1387,899,3.30258,-0.0286871,0.271279,0.907898
1398,888,3.30371,-0.0261477,0.27084,0.906648
1409,877,3.30194,-0.0288815,0.271251,0.905032
1420,866,3.30358,-0.0262893,0.269656,0.904046
1431,855,3.30171,-0.029077,0.270707,0.902446
1442,844,3.30306,-0.0273519,0.269646,0.900896
1453,833,3.30151,-0.0290962,0.270363,0.899891
1464,822,3.30272,-0.0272851,0.269073,0.898311
1475,811,3.30336,-0.0260008,0.268621,0.89632
1486,800,3.30157,-0.0276757,0.269052,0.895351
1497,789,3.30277,-0.0260797,0.268183,0.893495
1508,778,3.30069,-0.0288768,0.269054,0.892124
1519,767,3.30177,-0.027132,0.268608,0.890501
1530,756,3.2998,-0.0299945,0.269686,0.888873
1541,745,3.30093,-0.0283829,0.267993,0.8873
1552,734,3.30147,-0.0267516,0.267441,0.88531
1563,723,3.30009,-0.0294005,0.267982,0.884052
1574,712,3.3003,-0.0278454,0.26746,0.882124
1585,701,3.29889,-0.0305486,0.268003,0.880831
1596,690,3.30016,-0.0287738,0.267554,0.879199
1607,679,3.30067,-0.0272215,0.266387,0.877245
1618,668,3.29889,-0.029944,0.266937,0.875964
1629,657,3.29909,-0.0283871,0.266395,0.873932
1640,646,3.30035,-0.0266557,0.265965,0.872329
1651,635,3.29779,-0.0304865,0.266403,0.86886
1662,624,3.2983,-0.0287991,0.265862,0.868263
1673,613,3.29645,-0.0316094,0.266258,0.866928
1684,602,3.297,-0.0309325,0.265969,0.86463
1695,591,3.29798,-0.0292008,0.264784,0.862892
1706,580,3.29814,-0.0275947,0.264312,0.860838
1717,569,3.29588,-0.0290495,0.26483,0.858933
1728,558,3.29604,-0.0352684,0.263714,0.856627
1739,547,3.29786,-0.0286101,0.26146,0.854928
1750,536,3.29463,-0.035126,0.263545,0.852911
1761,525,3.29511,-0.0390389,0.261482,0.850601
1772,514,3.29627,-0.0321302,0.259862,0.848949
1783,503,3.29655,-0.0290119,0.258095,0.846555
1794,492,3.29499,-0.0304116,0.258078,0.844882
1805,481,3.29541,-0.034311,0.256398,0.842609
1816,470,3.29621,-0.028512,0.254707,0.840289
1827,459,3.29629,-0.0349793,0.253576,0.837969
1838,448,3.29696,-0.029193,0.251885,0.835631
1849,437,3.29427,-0.0333354,0.253003,0.833847
1860,426,3.29436,-0.0326784,0.25243,0.831219
1871,415,3.29459,-0.036588,0.250732,0.82897
1882,404,3.29548,-0.0358136,0.249587,0.826928
1893,393,3.29667,-0.0272247,0.247311,0.824626
1904,382,3.29313,-0.0414112,0.248439,0.822888
1915,371,3.2938,-0.0356108,0.246652,0.820188
1926,360,3.29525,-0.0294029,0.244426,0.818249
1937,349,3.29514,-0.0359251,0.243258,0.815942
1948,338,3.29508,-0.0312144,0.242095,0.812858
1959,327,3.29547,-0.0277926,0.24094,0.810546
1970,316,3.29495,-0.0373151,0.240317,0.808144
1981,305,3.29258,-0.0400048,0.240874,0.805822
1992,294,3.29332,-0.033829,0.239144,0.803521
2003,283,3.29391,-0.040434,0.237407,0.801805
2014,272,3.29341,-0.0383368,0.236784,0.798483
2025,261,3.29386,-0.0348623,0.235601,0.796154
2036,250,3.29429,-0.0400871,0.233865,0.79355
2047,239,3.29423,-0.0366209,0.232658,0.791147
2058,228,3.29431,-0.0369342,0.232012,0.788416
2069,217,3.29534,-0.0278202,0.229704,0.786126
2080,206,3.29179,-0.0411691,0.230259,0.783855
2091,195,3.29144,-0.0389626,0.2296,0.780748
2102,184,3.29288,-0.0323009,0.227274,0.778798
2113,173,3.29165,-0.0406674,0.226611,0.775751
2124,162,3.2918,-0.0400668,0.225941,0.773316
2135,151,3.29267,-0.0317834,0.223604,0.77067
2146,140,3.29243,-0.0400169,0.222375,0.768038
2157,129,3.29183,-0.0422107,0.222255,0.765631
2168,118,3.29304,-0.0338445,0.219904,0.762976
2179,107,3.29212,-0.031471,0.219215,0.759889
2190,96,3.29222,-0.0369848,0.217417,0.75727
2201,85,3.29335,-0.0329789,0.215616,0.755317
2212,74,3.29223,-0.0418153,0.214906,0.752243
2223,63,3.29254,-0.039223,0.21364,0.749534
2234,52,3.29296,-0.0335431,0.211818,0.746876
2245,41,3.29241,-0.0311757,0.2111,0.74401
2256,30,3.29333,-0.0366487,0.208733,0.741559
2267,19,3.29238,-0.0371888,0.209149,0.738439
2278,8,3.29276,-0.0313532,0.206701,0.735798
2283,3,3.29009,-0.046978,0.207803,0.734091

File: HUST_3-3_cycle_feature_matrix.csv
cycle_number,rul,voltage,current,capacity,charge_capacity
1,1651,3.32206,0.0128107,0.267248,1.01121
9,1643,3.30839,-0.0287336,0.28084,0.993001
17,1635,3.31241,-0.024789,0.277416,0.999454
25,1627,3.31541,-0.0243179,0.275414,1.0036
33,1619,3.31661,-0.0235524,0.273692,1.00495
41,1611,3.31689,-0.023569,0.272824,1.00538
49,1603,3.31799,-0.0233332,0.271973,1.00596
57,1595,3.31791,-0.0241526,0.27197,1.00558
65,1587,3.31758,-0.0253101,0.271646,1.00528
73,1579,3.31866,-0.0252005,0.270923,1.00423
81,1571,3.31787,-0.0266774,0.271344,1.00331
89,1563,3.31795,-0.0261779,0.270934,1.00259
97,1555,3.31902,-0.0253094,0.270585,1.00188
105,1547,3.31858,-0.0265904,0.270302,1.00126
113,1539,3.31729,-0.026416,0.270741,0.999919
121,1531,3.31917,-0.0242786,0.269274,0.99901
129,1523,3.31813,-0.0269226,0.270534,0.998303
137,1515,3.31782,-0.0264746,0.270122,0.997536
145,1507,3.3184,-0.0245534,0.269505,0.996069
153,1499,3.31763,-0.0270993,0.270348,0.995651
161,1491,3.31722,-0.0278211,0.270772,0.995075
169,1483,3.31823,-0.024069,0.269325,0.993731
177,1475,3.31752,-0.0253948,0.269495,0.992858
185,1467,3.31713,-0.0261642,0.270524,0.992276
193,1459,3.31852,-0.0241427,0.269142,0.991122
201,1451,3.31738,-0.0249027,0.269569,0.990522
209,1443,3.31696,-0.0256262,0.269999,0.989949
217,1435,3.31655,-0.0263202,0.269993,0.989625
225,1427,3.31702,-0.0238254,0.269132,0.988332
233,1419,3.31689,-0.0250588,0.269807,0.987554
241,1411,3.31595,-0.0258897,0.270241,0.986941
249,1403,3.3153,-0.0273922,0.27068,0.986041
257,1395,3.31732,-0.0244619,0.269186,0.985447
265,1387,3.31586,-0.0263709,0.27003,0.985249
273,1379,3.31522,-0.027228,0.270454,0.984548
281,1371,3.31422,-0.0281989,0.270889,0.983634
289,1363,3.31372,-0.0295001,0.271325,0.983006
297,1355,3.3157,-0.0265579,0.26983,0.982425
305,1347,3.31515,-0.0272536,0.269851,0.982224
313,1339,3.31431,-0.0288504,0.270728,0.981006
321,1331,3.31365,-0.0295521,0.270719,0.980661
329,1323,3.31563,-0.0265496,0.269235,0.980159
337,1315,3.31501,-0.0280856,0.269684,0.979501
345,1307,3.31407,-0.0289262,0.270116,0.978611
353,1299,3.31352,-0.0297352,0.270552,0.977979
361,1291,3.31448,-0.0269829,0.269514,0.977124
369,1283,3.31491,-0.0280568,0.269511,0.976652
377,1275,3.31293,-0.0292686,0.270395,0.975594
385,1267,3.3132,-0.0300261,0.270402,0.975293
393,1259,3.31428,-0.0252782,0.268911,0.974293
401,1251,3.31444,-0.0278064,0.269347,0.974148
409,1243,3.31273,-0.0294674,0.270238,0.972903
417,1235,3.31301,-0.0282136,0.269806,0.972524
425,1227,3.31399,-0.0254153,0.268749,0.971605
433,1219,3.31369,-0.0268295,0.269542,0.970735
441,1211,3.31246,-0.0277401,0.269649,0.968592
449,1203,3.31244,-0.0283946,0.269657,0.969865
457,1195,3.31357,-0.0255673,0.26859,0.968924
465,1187,3.31333,-0.0262413,0.268577,0.968598
473,1179,3.31221,-0.0279151,0.2695,0.967432
481,1171,3.31184,-0.0284561,0.269513,0.967249
489,1163,3.3134,-0.0256388,0.268441,0.966296
497,1155,3.31252,-0.0272431,0.268882,0.965306
505,1147,3.31195,-0.0280172,0.26936,0.964808
513,1139,3.31111,-0.0287629,0.269336,0.964407
521,1131,3.31307,-0.0257764,0.267803,0.963771
529,1123,3.31246,-0.0266555,0.268268,0.963145
537,1115,3.31127,-0.0281279,0.268812,0.962253
545,1107,3.31096,-0.0289687,0.269265,0.961615
553,1099,3.31157,-0.0261412,0.268094,0.960653
561,1091,3.31122,-0.0277321,0.268567,0.959775
569,1083,3.3111,-0.0283425,0.268568,0.95953
577,1075,3.31203,-0.0254293,0.267488,0.958577
585,1067,3.31184,-0.0269176,0.267484,0.957961
593,1059,3.31151,-0.027691,0.267968,0.957443
601,1051,3.30965,-0.0294712,0.268884,0.956146
609,1043,3.31164,-0.0263483,0.26733,0.955525
617,1035,3.31114,-0.0270506,0.267329,0.954987
625,1027,3.30969,-0.0287579,0.268284,0.954084
633,1019,3.30951,-0.0296021,0.268269,0.953694
641,1011,3.31108,-0.0272473,0.267186,0.952497
649,1003,3.30975,-0.0282252,0.26767,0.951887
657,995,3.30902,-0.0297186,0.268153,0.951074
665,987,3.31128,-0.0265818,0.2666,0.950457
673,979,3.30972,-0.0284264,0.267535,0.949166
681,971,3.30888,-0.0290863,0.268138,0.948935
689,963,3.31071,-0.0268367,0.266466,0.947723
697,955,3.30979,-0.028443,0.266941,0.946805
705,947,3.30839,-0.029368,0.267501,0.946147
713,939,3.31036,-0.0262765,0.265848,0.945525
721,931,3.30981,-0.0278381,0.266315,0.944612
729,923,3.30895,-0.0294844,0.266783,0.943657
737,915,3.30742,-0.0304393,0.267257,0.942988
745,907,3.30962,-0.0280031,0.265696,0.942109
753,899,3.30901,-0.0288679,0.266169,0.941473
761,891,3.30764,-0.0305093,0.266641,0.940533
769,883,3.30905,-0.0272882,0.265066,0.939906
777,875,3.30854,-0.0290094,0.265554,0.939009
785,867,3.3078,-0.0306043,0.266034,0.938103
793,859,3.30911,-0.0283455,0.264934,0.936824
801,851,3.30761,-0.0292303,0.265417,0.936201
809,843,3.30687,-0.0309302,0.265911,0.93531
817,835,3.30865,-0.0285885,0.264815,0.934067
825,827,3.30748,-0.0303428,0.265295,0.933101
833,819,3.3064,-0.0310324,0.265272,0.932751
841,811,3.30836,-0.0279071,0.263687,0.932085
849,803,3.30742,-0.030342,0.264664,0.930621
857,795,3.30888,-0.0271454,0.263073,0.929954
865,787,3.30704,-0.0289757,0.264032,0.928647
873,779,3.30676,-0.0305436,0.264046,0.92808
881,771,3.30841,-0.0281378,0.262952,0.926892
889,763,3.30741,-0.0298792,0.2637,0.925914
897,755,3.30583,-0.0308574,0.263911,0.925221
905,747,3.30713,-0.0285202,0.262811,0.923972
913,739,3.30688,-0.030075,0.262805,0.923361
921,731,3.30569,-0.0316575,0.263278,0.922409
929,723,3.30677,-0.0293538,0.262169,0.921123
937,715,3.30579,-0.0310807,0.262777,0.920282
945,707,3.3073,-0.0287984,0.261562,0.918924
953,699,3.30629,-0.0304372,0.262042,0.917977
961,691,3.30747,-0.0280891,0.260929,0.916692
969,683,3.30565,-0.0307662,0.261951,0.915191
977,675,3.30437,-0.0324628,0.262445,0.914259
985,667,3.30649,-0.0299247,0.260813,0.913287
993,659,3.30531,-0.0315673,0.261043,0.912378
1001,651,3.30598,-0.0302572,0.260702,0.910421
1009,643,3.30454,-0.032042,0.261209,0.909478
1017,635,3.30586,-0.029507,0.260071,0.908196
1025,627,3.30485,-0.0312621,0.260835,0.907247
1033,619,3.30665,-0.028707,0.258938,0.906276
1041,611,3.30456,-0.0315081,0.259949,0.904643
1049,603,3.30297,-0.0332775,0.260449,0.903682
1057,595,3.30448,-0.0308927,0.259314,0.902352
1065,587,3.30334,-0.0327384,0.259826,0.901371
1073,579,3.30443,-0.0309612,0.258239,0.8998
1081,571,3.30282,-0.0327334,0.259194,0.898867
1089,563,3.30417,-0.0311478,0.258054,0.897223
1097,555,3.30306,-0.032927,0.258573,0.896304
1105,547,3.30379,-0.0322955,0.257967,0.894087
1113,539,3.3019,-0.034118,0.258473,0.893089
1121,531,3.30299,-0.0316304,0.257314,0.891962
1129,523,3.30181,-0.0343099,0.257765,0.890439
1137,515,3.30267,-0.0327928,0.257216,0.888513
1145,507,3.30366,-0.0311463,0.256063,0.886873
1153,499,3.30185,-0.0329885,0.256581,0.885888
1161,491,3.30258,-0.031419,0.255942,0.883879
1169,483,3.30141,-0.0341636,0.256467,0.882592
1177,475,3.30142,-0.0326449,0.255835,0.880578
1185,467,3.2996,-0.0353649,0.256379,0.879355
1193,459,3.30083,-0.0335831,0.255214,0.877735
1201,451,3.30238,-0.0319118,0.254052,0.876086
1209,443,3.30015,-0.0349204,0.255131,0.874452
1217,435,3.3009,-0.0331669,0.253956,0.872789
1225,427,3.30106,-0.0315323,0.253304,0.870728
1233,419,3.2994,-0.0343538,0.253841,0.869432
1241,411,3.29999,-0.0337589,0.253227,0.867128
1249,403,3.30124,-0.0318627,0.252293,0.865504
1257,395,3.29894,-0.0357573,0.253122,0.863495
1265,387,3.29974,-0.0340893,0.251923,0.861733
1273,379,3.30003,-0.0333497,0.251276,0.859342
1281,371,3.29753,-0.0373652,0.25238,0.857355
1289,363,3.29839,-0.0355638,0.251186,0.855675
1297,355,3.2985,-0.0348061,0.250536,0.853267
1305,347,3.2988,-0.0341223,0.249885,0.850842
1313,339,3.29585,-0.0382829,0.251005,0.848812
1321,331,3.29625,-0.0375323,0.250385,0.84649
1329,323,3.29594,-0.0367723,0.249737,0.84408
1337,315,3.29583,-0.0360158,0.249084,0.841621
1345,307,3.29662,-0.0351892,0.247858,0.839538
1353,299,3.29618,-0.0355619,0.247785,0.836411
1361,291,3.29672,-0.0407044,0.245983,0.833837
1369,283,3.29331,-0.0450838,0.247135,0.831775
1377,275,3.29355,-0.0389755,0.245308,0.82943
1385,267,3.29362,-0.0470179,0.244068,0.826728
1393,259,3.29451,-0.0391579,0.241671,0.824155
1401,251,3.29416,-0.0470512,0.240423,0.821525
1409,243,3.29388,-0.0436472,0.239166,0.81912
1417,235,3.29474,-0.0385096,0.237335,0.816464
1425,227,3.29493,-0.0448843,0.235505,0.813518
1433,219,3.29473,-0.0413454,0.234568,0.811148
1441,211,3.29505,-0.0360916,0.232405,0.808537
1449,203,3.29419,-0.045541,0.231689,0.80513
1457,195,3.29504,-0.0373901,0.22928,0.802569
1465,187,3.29374,-0.0484236,0.228597,0.799819
1473,179,3.29385,-0.0434419,0.227255,0.796744
1481,171,3.29454,-0.0486703,0.224845,0.794556
1489,163,3.29348,-0.0463497,0.224101,0.791478
1497,155,3.29387,-0.0394869,0.222232,0.788122
1505,147,3.29684,-0.0424762,0.219052,0.785051
1513,139,3.29332,-0.0452454,0.219596,0.782771
1521,131,3.2974,-0.034415,0.215847,0.779687
1529,123,3.29611,-0.0442275,0.215063,0.77631
1537,115,3.29611,-0.0386891,0.213169,0.773644
1545,107,3.29654,-0.0443666,0.211583,0.771021
1553,99,3.29524,-0.0429621,0.210461,0.767611
1561,91,3.29576,-0.048877,0.208558,0.76494
1569,83,3.29501,-0.0461527,0.207182,0.762226
1577,75,3.29528,-0.0389022,0.205275,0.759132
1585,67,3.2942,-0.0506641,0.204431,0.756179
1593,59,3.29381,-0.046317,0.203042,0.752789
1601,51,3.2935,-0.0436092,0.201646,0.750074
1609,43,3.297,-0.0421054,0.197789,0.746373
1617,35,3.29615,-0.0423871,0.197512,0.743654
1625,27,3.29702,-0.0465525,0.194444,0.740751
1633,19,3.29507,-0.0471017,0.194649,0.737515
1641,11,3.29508,-0.040535,0.192097,0.733918
1649,3,3.29507,-0.0466627,0.190123,0.731238