Folder: MyBatteryML/hust_correlation_analysis/matrices (part 37)

File: HUST_10-4_cycle_feature_matrix.csv
cycle_number,rul,voltage,current,capacity,charge_capacity
1,1813,3.30323,0.0254844,0.324402,1.06313
10,1804,3.29474,-0.00500465,0.335748,1.04446
19,1795,3.29881,-0.00277704,0.332162,1.05002
28,1786,3.30041,-0.00342488,0.330435,1.05274
37,1777,3.30256,-0.00242002,0.328473,1.05424
46,1768,3.30297,-0.00255431,0.328081,1.05432
55,1759,3.30328,-0.00316024,0.327693,1.05403
64,1750,3.30352,-0.00384758,0.327308,1.05369
73,1741,3.3037,-0.00454647,0.326709,1.05334
82,1732,3.30394,-0.00304205,0.32626,1.05221
91,1723,3.30369,-0.00404993,0.326437,1.05134
100,1714,3.30339,-0.00468746,0.326822,1.05075
109,1705,3.30517,-0.00287917,0.325392,1.05014
118,1696,3.3047,-0.00399943,0.325777,1.04917
127,1687,3.30413,-0.00500026,0.326167,1.04831
136,1678,3.30507,-0.00294864,0.325506,1.04755
145,1669,3.30505,-0.00391933,0.325897,1.04697
154,1660,3.30469,-0.0043424,0.325894,1.0464
163,1651,3.304,-0.00503679,0.326282,1.046
172,1642,3.30504,-0.00299133,0.325236,1.04514
181,1633,3.30462,-0.00405496,0.325624,1.04422
190,1624,3.30314,-0.0044846,0.326229,1.04376
199,1615,3.30312,-0.00517135,0.326407,1.04312
208,1606,3.30235,-0.00526503,0.326999,1.04286
217,1597,3.30336,-0.00341747,0.325965,1.042
226,1588,3.30311,-0.00393647,0.326351,1.04162
235,1579,3.3031,-0.00467655,0.32596,1.04125
244,1570,3.30419,-0.00268377,0.325308,1.04047
253,1561,3.30438,-0.00360941,0.325097,1.03981
262,1552,3.30407,-0.00417982,0.325485,1.03923
271,1543,3.30373,-0.00468633,0.325486,1.03888
280,1534,3.30306,-0.00528467,0.325972,1.03679
289,1525,3.30458,-0.00320814,0.324832,1.0377
298,1516,3.30419,-0.00410815,0.325228,1.03691
307,1507,3.3039,-0.0041864,0.325226,1.03686
316,1498,3.30329,-0.00515622,0.32562,1.03602
325,1489,3.30477,-0.00299179,0.324573,1.03549
334,1480,3.30474,-0.00344609,0.324575,1.03515
343,1471,3.30414,-0.00404049,0.324966,1.03458
352,1462,3.30335,-0.00459692,0.325363,1.03405
361,1453,3.30506,-0.00280739,0.324318,1.03324
370,1444,3.30442,-0.00346441,0.324708,1.0326
379,1435,3.30429,-0.00385075,0.324711,1.03234
388,1426,3.3037,-0.00402934,0.324708,1.03219
397,1417,3.30352,-0.00466643,0.325101,1.0316
406,1408,3.30326,-0.00515746,0.3251,1.03124
415,1399,3.30411,-0.00307672,0.32445,1.03049
424,1390,3.3042,-0.00412915,0.324448,1.02972
433,1381,3.30394,-0.00408033,0.324446,1.02976
442,1372,3.3046,-0.00243943,0.324013,1.02869
451,1363,3.30447,-0.00295991,0.324102,1.02831
460,1354,3.30405,-0.00345161,0.324485,1.02782
469,1345,3.30326,-0.00418994,0.324807,1.02692
478,1336,3.30371,-0.00453063,0.324593,1.02692
487,1327,3.30442,-0.00240357,0.324155,1.02616
496,1318,3.30413,-0.00286096,0.324153,1.02584
505,1309,3.30363,-0.00397229,0.324553,1.02489
514,1300,3.30348,-0.00441953,0.32455,1.02457
523,1291,3.30369,-0.00232392,0.323902,1.02381
532,1282,3.30423,-0.00285091,0.323902,1.02346
541,1273,3.30339,-0.00349429,0.324303,1.02284
550,1264,3.30317,-0.00400102,0.324302,1.02249
559,1255,3.30417,-0.00237723,0.323654,1.02139
568,1246,3.3043,-0.00288752,0.32344,1.02102
577,1237,3.30364,-0.00334235,0.323651,1.02069
586,1228,3.30313,-0.00400152,0.324054,1.0201
595,1219,3.30382,-0.0022403,0.323406,1.01908
604,1210,3.30367,-0.00281044,0.323405,1.01866
613,1201,3.30239,-0.00364751,0.324214,1.01773
622,1192,3.30239,-0.00461209,0.324214,1.01711
631,1183,3.30322,-0.00202975,0.323565,1.01667
640,1174,3.30335,-0.00296948,0.323352,1.0158
649,1165,3.30286,-0.00355149,0.323566,1.01558
658,1156,3.30242,-0.00467018,0.32376,1.01467
667,1147,3.30223,-0.00476502,0.323758,1.01461
676,1138,3.30346,-0.00306428,0.323115,1.01356
685,1129,3.30335,-0.00357591,0.323114,1.01321
694,1120,3.30285,-0.00462779,0.323524,1.01233
703,1111,3.30424,-0.00235135,0.32247,1.01179
712,1102,3.30393,-0.00342049,0.322877,1.01089
721,1093,3.30281,-0.00395496,0.323283,1.01038
730,1084,3.30276,-0.00495831,0.323278,1.00965
739,1075,3.30315,-0.00292814,0.322847,1.00881
748,1066,3.30284,-0.00345955,0.322917,1.00844
757,1057,3.30151,-0.00474713,0.323662,1.00722
766,1048,3.30322,-0.00247636,0.322611,1.00669
775,1039,3.30266,-0.00305235,0.322398,1.00629
784,1030,3.30267,-0.00403318,0.322811,1.00548
793,1021,3.30191,-0.00517876,0.323221,1.00454
802,1012,3.30322,-0.00311446,0.322165,1.00385
811,1003,3.30278,-0.00404695,0.322576,1.00305
820,994,3.3021,-0.00471072,0.322989,1.00246
829,985,3.30271,-0.00300521,0.322344,1.00135
838,976,3.30248,-0.00348266,0.322346,1.00102
847,967,3.3013,-0.00479638,0.323175,0.99982
856,958,3.30293,-0.00229885,0.321703,0.999547
865,949,3.30221,-0.00354937,0.322118,0.998537
874,940,3.30213,-0.00467264,0.322537,0.997621
883,931,3.30299,-0.00243702,0.321481,0.997036
892,922,3.30248,-0.00359764,0.321893,0.996076
901,913,3.30136,-0.00477596,0.322305,0.995127
910,904,3.30077,-0.00545971,0.322725,0.99449
919,895,3.3015,-0.00366193,0.322088,0.993466
928,886,3.30121,-0.00484086,0.322505,0.992502
937,877,3.30262,-0.00238475,0.321448,0.992055
946,868,3.30182,-0.00358001,0.321866,0.991096
955,859,3.30093,-0.0047083,0.321863,0.990294
964,850,3.30111,-0.00316304,0.322075,0.98879
973,841,3.30092,-0.00422425,0.322071,0.988037
982,832,3.30163,-0.00246521,0.322076,0.986947
991,823,3.30138,-0.00363391,0.322285,0.986011
1000,814,3.30034,-0.00472428,0.322066,0.985244
1009,805,3.3011,-0.00296266,0.321644,0.984013
1018,796,3.29995,-0.00417899,0.322283,0.983039
1027,787,3.30108,-0.00240823,0.321652,0.981955
1036,778,3.30049,-0.00359498,0.32207,0.98099
1045,769,3.29966,-0.00527278,0.322287,0.979705
1054,760,3.29968,-0.00320035,0.321871,0.978807
1063,751,3.2996,-0.00437893,0.321868,0.978003
1072,742,3.30073,-0.00247803,0.321022,0.976968
1081,733,3.29968,-0.00419664,0.321883,0.975545
1090,724,3.29785,-0.00565817,0.32275,0.974257
1099,715,3.29889,-0.00383192,0.321902,0.973307
1108,706,3.2984,-0.00505757,0.322332,0.972341
1117,697,3.29911,-0.00380675,0.321488,0.97087
1126,688,3.29754,-0.005079,0.322361,0.969731
1135,679,3.29918,-0.00330105,0.321297,0.968754
1144,670,3.29839,-0.00488639,0.321736,0.967553
1153,661,3.29851,-0.00368066,0.321547,0.965889
1162,652,3.29747,-0.00496344,0.321987,0.964875
1171,643,3.29889,-0.00365294,0.321359,0.963427
1180,634,3.2986,-0.00239785,0.321173,0.961775
1189,625,3.29741,-0.00373311,0.321953,0.960746
1198,616,3.29852,-0.003024,0.321441,0.958763
1207,607,3.29711,-0.00425192,0.321881,0.957794
1216,598,3.29731,-0.00177593,0.320914,0.955744
1225,589,3.29653,-0.00509705,0.322154,0.954599
1234,580,3.29704,-0.00385591,0.321529,0.953052
1243,571,3.29496,-0.0055647,0.322432,0.951648
1252,562,3.29506,-0.00455253,0.322479,0.949811
1261,553,3.29653,-0.00324878,0.321647,0.948319
1270,544,3.29467,-0.00554449,0.322618,0.946522
1279,535,3.29484,-0.00451946,0.322399,0.944703
1288,526,3.29527,-0.00321567,0.321782,0.94319
1297,517,3.29349,-0.00513367,0.322453,0.941771
1306,508,3.29418,-0.00396348,0.322303,0.94003
1315,499,3.2938,-0.00336691,0.322151,0.937914
1324,490,3.29355,-0.00275886,0.322006,0.935776
1333,481,3.29282,-0.00462063,0.322467,0.934429
1342,472,3.29331,-0.0038579,0.321861,0.932554
1351,463,3.29282,-0.00344439,0.322192,0.930156
1360,454,3.29336,-0.00659218,0.320891,0.92749
1369,445,3.29227,-0.00759446,0.321449,0.925455
1378,436,3.29199,-0.00356259,0.320026,0.923333
1387,427,3.29073,-0.00948759,0.3208,0.921033
1396,418,3.29161,-0.00729742,0.319284,0.918915
1405,409,3.29185,-0.00339137,0.318209,0.916593
1414,400,3.29191,-0.00790045,0.317604,0.914234
1423,391,3.29327,-0.00105039,0.315175,0.911649
1432,382,3.29093,-0.0103387,0.316058,0.909624
1441,373,3.29329,-0.00199742,0.313446,0.906722
1450,364,3.29131,-0.00369554,0.314808,0.904077
1459,355,3.29129,-0.00695421,0.313093,0.901395
1468,346,3.29095,-0.00468741,0.312706,0.899156
1477,337,3.29132,-0.00782985,0.311422,0.896525
1486,328,3.29087,-0.00646558,0.311033,0.893717
1495,319,3.29098,-0.00792864,0.309499,0.891005
1504,310,3.29197,-0.00392047,0.307969,0.888827
1513,301,3.29045,-0.00975646,0.308299,0.885423
1522,292,3.2915,-0.00470234,0.306249,0.882725
1531,283,3.29045,-0.00318041,0.306168,0.879882
1540,274,3.29113,-0.00465518,0.304177,0.877273
1549,265,3.29093,-0.00308795,0.303586,0.874601
1558,256,3.28919,-0.00886993,0.303913,0.871261
1567,247,3.2922,-0.00717742,0.300963,0.868394
1576,238,3.29174,-0.00613928,0.300743,0.865233
1585,229,3.29172,-0.00103693,0.299228,0.862374
1594,220,3.29203,-0.00447073,0.297713,0.859737
1603,211,3.29059,-0.00352666,0.298041,0.856402
1612,202,3.29029,-0.00747301,0.296987,0.853326
1621,193,3.29096,-0.00806211,0.294815,0.849959
1630,184,3.29107,-0.00467405,0.293774,0.847211
1639,175,3.29003,-0.00312542,0.293638,0.844377
1648,166,3.29014,-0.00425371,0.291681,0.840662
1657,157,3.29202,-0.00436138,0.289604,0.837694
1666,148,3.29077,-0.00347485,0.289468,0.834434
1675,139,3.28938,-0.00248094,0.289536,0.831241
1684,130,3.2898,-0.00464865,0.287589,0.828231
1693,121,3.2898,-0.0064545,0.286099,0.825274
1702,112,3.2921,-0.00709011,0.283839,0.822
1711,103,3.29079,-0.0025719,0.283005,0.818537
1720,94,3.28965,-0.00167426,0.282867,0.815282
1729,85,3.28821,-0.00771692,0.282739,0.812121
1738,76,3.28842,-0.00826836,0.280808,0.808716
1747,67,3.28821,-0.00366061,0.279334,0.805385
1756,58,3.28938,-0.00434079,0.277294,0.802078
1765,49,3.28788,-0.00864055,0.276712,0.798742
1774,40,3.28844,-0.0022369,0.274369,0.795364
1783,31,3.28824,-0.0129807,0.274125,0.792871
1792,22,3.28684,-0.00834622,0.273728,0.789895
1801,13,3.28828,-0.000250734,0.271186,0.786343
1810,4,3.28834,-0.00202591,0.269306,0.783538
1811,3,3.28629,-0.00796805,0.270216,0.783037

File: HUST_10-5_cycle_feature_matrix.csv
cycle_number,rul,voltage,current,capacity,charge_capacity
1,2032,3.30997,0.0257154,0.281011,1.04889
11,2022,3.30237,-0.00845548,0.292338,1.03053
21,2012,3.30518,-0.0082966,0.289752,1.0371
31,2002,3.30837,-0.00660005,0.287067,1.03938
41,1992,3.30839,-0.00844317,0.287118,1.04065
51,1982,3.30916,-0.00905571,0.286375,1.04065
61,1972,3.31109,-0.00677821,0.28477,1.04021
71,1962,3.31042,-0.00797418,0.284795,1.03957
81,1952,3.31015,-0.00901218,0.284791,1.03891
91,1942,3.31096,-0.00741757,0.283954,1.03777
101,1932,3.31078,-0.00843989,0.283962,1.03717
111,1922,3.31181,-0.00680107,0.28312,1.036
121,1912,3.31174,-0.00778252,0.283131,1.0357
131,1902,3.31117,-0.00838002,0.283768,1.03484
141,1892,3.31255,-0.00713655,0.282681,1.03355
151,1882,3.3118,-0.00779723,0.283048,1.03295
161,1872,3.31124,-0.00888877,0.283425,1.03212
171,1862,3.31237,-0.00658313,0.282582,1.03137
181,1852,3.31167,-0.00784026,0.28295,1.03039
191,1842,3.31086,-0.00845208,0.283315,1.0298
201,1832,3.30986,-0.00915652,0.283691,1.02919
211,1822,3.31126,-0.00679617,0.282624,1.02867
221,1812,3.31046,-0.0074684,0.283174,1.02771
231,1802,3.30938,-0.00892827,0.283901,1.02762
241,1792,3.30974,-0.00983631,0.283898,1.02708
251,1782,3.30937,-0.0108524,0.283912,1.02651
261,1772,3.31093,-0.00754357,0.282782,1.02526
271,1762,3.31008,-0.0082868,0.283073,1.02463
281,1752,3.30954,-0.0093448,0.283091,1.02405
291,1742,3.30862,-0.00940351,0.283449,1.02376
301,1732,3.31044,-0.00750727,0.282259,1.02303
311,1722,3.3101,-0.00815755,0.28262,1.0224
321,1712,3.30998,-0.00919114,0.282653,1.02187
331,1702,3.31085,-0.00696376,0.281787,1.02098
341,1692,3.31009,-0.00762,0.282181,1.02044
351,1682,3.31032,-0.00877987,0.2822,1.01981
361,1672,3.30977,-0.00924008,0.282715,1.01931
371,1662,3.31093,-0.00687664,0.281648,1.0188
381,1652,3.31007,-0.00756174,0.282015,1.01816
391,1642,3.31025,-0.00803561,0.281748,1.01794
401,1632,3.30989,-0.00918648,0.282133,1.01708
411,1622,3.31064,-0.00689872,0.281293,1.01628
421,1612,3.30972,-0.00748402,0.281664,1.01572
431,1602,3.31026,-0.00824056,0.281653,1.01522
441,1592,3.31008,-0.0086623,0.28165,1.01495
451,1582,3.3093,-0.00873535,0.281628,1.01484
461,1572,3.31073,-0.00700442,0.28081,1.01378
471,1562,3.3103,-0.00760499,0.281183,1.01301
481,1552,3.3097,-0.00820366,0.281192,1.01289
491,1542,3.30913,-0.00929089,0.281575,1.01206
501,1532,3.30926,-0.00940009,0.281545,1.01189
511,1522,3.30978,-0.00754685,0.280742,1.01095
521,1512,3.3095,-0.00828609,0.281111,1.01029
531,1502,3.30912,-0.00874979,0.281512,1.00988
541,1492,3.30992,-0.00693908,0.280672,1.00878
551,1482,3.30991,-0.00753521,0.280671,1.00841
561,1472,3.30914,-0.00802056,0.281058,1.00795
571,1462,3.30861,-0.00863145,0.281058,1.0076
581,1452,3.31083,-0.00682075,0.280108,1.00664
591,1442,3.30961,-0.00751139,0.280202,1.00602
601,1432,3.30995,-0.00814493,0.280198,1.00564
611,1422,3.30887,-0.00877544,0.280581,1.00508
621,1412,3.30812,-0.00943258,0.280963,1.00448
631,1402,3.31048,-0.00689474,0.279349,1.00419
641,1392,3.30891,-0.00821343,0.280132,1.00306
651,1382,3.30892,-0.00871491,0.280138,1.00278
661,1372,3.31012,-0.00624521,0.278902,1.00198
671,1362,3.30953,-0.00713633,0.279262,1.00144
681,1352,3.30882,-0.007663,0.279669,1.001
691,1342,3.30868,-0.00885608,0.279656,1.00026
701,1332,3.30825,-0.00949139,0.280053,0.999725
711,1322,3.30897,-0.0076076,0.279213,0.998651
721,1312,3.3091,-0.00777415,0.279198,0.998518
731,1302,3.308,-0.00891431,0.279882,0.997667
741,1292,3.30821,-0.00961747,0.279579,0.997456
751,1282,3.30897,-0.00775034,0.278484,0.996184
761,1272,3.30923,-0.00833991,0.278737,0.995787
771,1262,3.30773,-0.00962503,0.279542,0.99473
781,1252,3.30973,-0.00701799,0.278303,0.99425
791,1242,3.30837,-0.00836032,0.279091,0.993098
801,1232,3.30889,-0.00882364,0.278698,0.993016
811,1222,3.30876,-0.00699021,0.278665,0.991678
821,1212,3.3091,-0.00767335,0.278235,0.991264
831,1202,3.30808,-0.0083569,0.278226,0.990838
841,1192,3.30735,-0.0092082,0.278602,0.990083
851,1182,3.30896,-0.00717111,0.277771,0.989129
861,1172,3.30763,-0.00856144,0.278155,0.988099
871,1162,3.30741,-0.00949311,0.27858,0.98747
881,1152,3.30795,-0.0071718,0.277712,0.986544
891,1142,3.30865,-0.00791822,0.2773,0.986242
901,1132,3.30716,-0.00909021,0.278113,0.985266
911,1122,3.30812,-0.00725165,0.277259,0.984094
921,1112,3.308,-0.00855398,0.277653,0.983141
931,1102,3.30631,-0.00915235,0.278061,0.982641
941,1092,3.30836,-0.00710186,0.276813,0.981792
951,1082,3.30741,-0.00848271,0.277212,0.980823
961,1072,3.30615,-0.00980189,0.277605,0.979838
971,1062,3.30807,-0.00777544,0.276768,0.978832
981,1052,3.30722,-0.00858992,0.27675,0.978301
991,1042,3.3057,-0.0100967,0.277554,0.977059
1001,1032,3.30791,-0.00796076,0.276285,0.976198
1011,1022,3.30669,-0.00876994,0.276683,0.975542
1021,1012,3.3071,-0.00742193,0.276251,0.973958
1031,1002,3.30689,-0.00804379,0.276245,0.973577
1041,992,3.30604,-0.00931871,0.276657,0.972675
1051,982,3.3067,-0.00728028,0.275803,0.971598
1061,972,3.30626,-0.00872484,0.276206,0.970601
1071,962,3.30552,-0.00999204,0.276617,0.969697
1081,952,3.30635,-0.00812885,0.275757,0.968506
1091,942,3.30444,-0.00952369,0.276583,0.967358
1101,932,3.30607,-0.00741264,0.275311,0.966482
1111,922,3.30572,-0.00876461,0.275723,0.96554
1121,912,3.30677,-0.00741889,0.27487,0.96406
1131,902,3.30505,-0.00874657,0.275696,0.962928
1141,892,3.30366,-0.0101943,0.276109,0.961943
1151,882,3.30531,-0.00805256,0.274753,0.961097
1161,872,3.30441,-0.0101243,0.275671,0.959559
1171,862,3.3056,-0.00759151,0.274383,0.958857
1181,852,3.30415,-0.00963087,0.275208,0.957329
1191,842,3.30446,-0.00708415,0.274339,0.956443
1201,832,3.30371,-0.0090088,0.274783,0.955288
1211,822,3.30492,-0.00704039,0.273908,0.954057
1221,812,3.30414,-0.0084835,0.274309,0.953017
1231,802,3.30336,-0.0104137,0.274747,0.95182
1241,792,3.30391,-0.00853792,0.273872,0.950532
1251,782,3.30267,-0.0106052,0.274726,0.949051
1261,772,3.30386,-0.00850092,0.273442,0.948122
1271,762,3.30217,-0.0106013,0.274287,0.946587
1281,752,3.30236,-0.00919461,0.273871,0.944982
1291,742,3.30113,-0.0105661,0.274589,0.944012
1301,732,3.30245,-0.00909788,0.273432,0.942554
1311,722,3.3027,-0.00780017,0.273007,0.940822
1321,712,3.30159,-0.00986225,0.273432,0.939498
1331,702,3.30237,-0.00777088,0.272574,0.938358
1341,692,3.30135,-0.00981144,0.273009,0.937096
1351,682,3.30172,-0.00849164,0.272572,0.9353
1361,672,3.301875,-0.00781696,0.272473,0.933286
1371,662,3.30087,-0.00937918,0.272559,0.932099
1381,652,3.2996,-0.010854,0.27299,0.931099
1391,642,3.30048,-0.009324,0.272135,0.929655
1401,632,3.30068,-0.0080204,0.27169,0.927793
1411,622,3.29917,-0.0103447,0.272574,0.926184
1421,612,3.30008,-0.00859559,0.271725,0.924881
1431,602,3.30015,-0.00740336,0.271291,0.92298
1441,592,3.29904,-0.0103335,0.271735,0.921249
1451,582,3.29962,-0.00892713,0.271304,0.919454
1461,572,3.29801,-0.0111848,0.271745,0.918041
1471,562,3.29902,-0.00972001,0.270854,0.91643
1481,552,3.29877,-0.00907647,0.270897,0.914115
1491,542,3.2988,-0.00763005,0.270445,0.91252
1501,532,3.29699,-0.0105285,0.270939,0.910664
1511,522,3.29757,-0.00980761,0.270519,0.908499
1521,512,3.29812,-0.00841342,0.269646,0.906881
1531,502,3.29814,-0.0075809,0.269238,0.904803
1541,492,3.2957,-0.0106221,0.270153,0.902841
1551,482,3.29592,-0.0156166,0.269275,0.90058
1561,472,3.2969,-0.0111483,0.267919,0.898177
1571,462,3.29696,-0.00785408,0.266583,0.896465
1581,452,3.29519,-0.0146684,0.266569,0.894356
1591,442,3.29651,-0.00903236,0.264783,0.891567
1601,432,3.29597,-0.00828213,0.264366,0.889446
1611,422,3.29565,-0.0152729,0.263937,0.887223
1621,412,3.29678,-0.00948233,0.262368,0.884517
1631,402,3.29662,-0.00667826,0.261274,0.882347
1641,392,3.29565,-0.0125464,0.260849,0.879509
1651,382,3.29699,-0.00672753,0.25907,0.876789
1661,372,3.29467,-0.0174138,0.259514,0.87513
1671,362,3.29445,-0.0128601,0.258164,0.872712
1681,352,3.29547,-0.0168489,0.256836,0.870019
1691,342,3.29427,-0.0169112,0.256854,0.867296
1701,332,3.29494,-0.0122279,0.255053,0.865136
1711,322,3.29545,-0.0162282,0.253709,0.862397
1721,312,3.29505,-0.0142917,0.252815,0.859761
1731,302,3.29504,-0.0105493,0.251921,0.856768
1741,292,3.29548,-0.0144473,0.250586,0.854125
1751,282,3.29364,-0.0165588,0.251049,0.851471
1761,272,3.29517,-0.0165307,0.24835,0.848786
1771,262,3.29455,-0.0143483,0.247459,0.846291
1781,252,3.29491,-0.00842838,0.246118,0.843275
1791,242,3.29474,-0.0153583,0.245219,0.840228
1801,232,3.294,-0.0134435,0.244318,0.837572
1811,222,3.29468,-0.0153529,0.242538,0.834854
1821,212,3.29351,-0.0141601,0.242081,0.831679
1831,202,3.29631,-0.0142981,0.239788,0.828735
1841,192,3.29504,-0.013026,0.238951,0.825599
1851,182,3.29574,-0.00690603,0.237156,0.823002
1861,172,3.29506,-0.0119126,0.236251,0.819429
1871,162,3.29415,-0.0119131,0.23579,0.816945
1881,152,3.29495,-0.0147861,0.234006,0.813766
1891,142,3.29352,-0.0128271,0.233533,0.811173
1901,132,3.29352,-0.017776,0.232188,0.807878
1911,122,3.29298,-0.0145148,0.23128,0.804562
1921,112,3.29558,-0.00621085,0.228581,0.801582
1931,102,3.29468,-0.0112601,0.227685,0.798354
1941,92,3.29494,-0.00786939,0.226331,0.795243
1951,82,3.29405,-0.0144888,0.225841,0.792309
1961,72,3.29288,-0.0152487,0.225369,0.789519
1971,62,3.29325,-0.0160078,0.223584,0.786076
1981,52,3.29224,-0.0160775,0.223096,0.783549
1991,42,3.29509,-0.0148185,0.219974,0.778685
2001,32,3.29422,-0.0092182,0.218732,0.776774
2011,22,3.29275,-0.00800669,0.218125,0.773554
2021,12,3.2936,-0.0110695,0.216341,0.770299
2030,3,3.29222,-0.0111731,0.216269,0.767581