Folder: MyBatteryML/hust_correlation_analysis/matrices (part 20)

File: HUST_6-1_cycle_feature_matrix.csv
cycle_number,rul,voltage,current,capacity,charge_capacity
1,1611,3.31514,-0.00679969,0.342137,1.02258
9,1603,3.30399,-0.00973012,0.347548,1.01624
17,1595,3.30599,-0.00843386,0.345913,1.01521
25,1587,3.30548,-0.00965943,0.345914,1.01452
33,1579,3.30668,-0.00790692,0.344767,1.01356
41,1571,3.30627,-0.00855529,0.344769,1.0132
49,1563,3.30595,-0.00983596,0.344864,1.01247
57,1555,3.30715,-0.008082,0.344104,1.01133
65,1547,3.30672,-0.00864866,0.344106,1.01102
73,1539,3.30644,-0.00982853,0.344106,1.01034
81,1531,3.3085,-0.00729495,0.34248,1.01002
89,1523,3.30797,-0.00800328,0.342954,1.00943
97,1515,3.30765,-0.00923429,0.343056,1.00868
105,1507,3.30737,-0.00977794,0.342949,1.00837
113,1499,3.30875,-0.00741295,0.341803,1.00778
121,1491,3.30892,-0.00862423,0.341797,1.00705
129,1483,3.30831,-0.00927579,0.342272,1.00651
137,1475,3.30749,-0.00993991,0.342745,1.00592
145,1467,3.30922,-0.00741475,0.341111,1.00556
153,1459,3.30886,-0.0080954,0.341587,1.00499
161,1451,3.30926,-0.00863493,0.341109,1.00486
169,1443,3.30866,-0.00929208,0.341208,1.00445
177,1435,3.30827,-0.0099086,0.341574,1.0039
185,1427,3.31045,-0.00736329,0.339954,1.00357
193,1419,3.3095,-0.00747891,0.340425,1.00332
201,1411,3.30964,-0.00797491,0.340427,1.00303
209,1403,3.30968,-0.00865987,0.340424,1.00263
217,1395,3.30878,-0.00935633,0.34091,1.00206
225,1387,3.30889,-0.00925124,0.340433,1.0023
233,1379,3.30827,-0.00994156,0.340911,1.00173
241,1371,3.30835,-0.00980674,0.34045,1.00202
249,1363,3.30973,-0.0075062,0.339764,1.00117
257,1355,3.30931,-0.00816342,0.339766,1.00076
265,1347,3.30893,-0.0087972,0.340239,1.00022
273,1339,3.30894,-0.00928569,0.339765,1.00011
281,1331,3.30906,-0.00935524,0.339764,1.00009
289,1323,3.31034,-0.00754007,0.339084,0.998939
297,1315,3.31066,-0.00748696,0.338615,0.999166
305,1307,3.30951,-0.00816912,0.339086,0.998573
313,1299,3.30985,-0.0087185,0.338613,0.998417
321,1291,3.30952,-0.00938989,0.339085,0.997855
329,1283,3.3093,-0.00995163,0.33908,0.997522
337,1275,3.31076,-0.0075251,0.33801,0.996899
345,1267,3.3105,-0.00808929,0.337931,0.996573
353,1259,3.31065,-0.00873886,0.337931,0.996207
361,1251,3.31044,-0.00931727,0.337927,0.995852
369,1243,3.30991,-0.00991443,0.337925,0.995486
377,1235,3.31143,-0.00755096,0.337248,0.99486
385,1227,3.3115,-0.00806965,0.336781,0.994585
393,1219,3.31154,-0.00862888,0.336301,0.994393
401,1211,3.31042,-0.00938334,0.337248,0.993609
409,1203,3.31077,-0.00994217,0.33677,0.993436
417,1195,3.31216,-0.00748276,0.335621,0.992843
425,1187,3.31142,-0.00810765,0.336094,0.992309
433,1179,3.31207,-0.00875542,0.335619,0.992094
441,1171,3.31121,-0.00938225,0.336091,0.991555
449,1163,3.31014,-0.0100044,0.336569,0.990996
457,1155,3.31234,-0.00753008,0.334945,0.990595
465,1147,3.31176,-0.00816216,0.335417,0.99005
473,1139,3.31088,-0.00886036,0.335967,0.989455
481,1131,3.31108,-0.00943171,0.335413,0.989294
489,1123,3.31286,-0.0074714,0.334264,0.988403
497,1115,3.3121,-0.00820932,0.334738,0.98779
505,1107,3.31175,-0.00890286,0.334736,0.987371
513,1099,3.31168,-0.00998701,0.335207,0.986726
521,1091,3.31252,-0.00756638,0.334065,0.985951
529,1083,3.31207,-0.00822734,0.334063,0.985549
537,1075,3.31212,-0.00944886,0.334058,0.984823
545,1067,3.31109,-0.0101092,0.33453,0.984243
553,1059,3.31298,-0.00759958,0.33338,0.98367
561,1051,3.31245,-0.00886641,0.334318,0.982736
569,1043,3.31214,-0.00953453,0.333841,0.982322
577,1035,3.31154,-0.0100752,0.333834,0.981979
585,1027,3.3126,-0.00765442,0.333152,0.981164
593,1019,3.3132,-0.00884164,0.332678,0.980628
601,1011,3.3121,-0.00946465,0.333154,0.980095
609,1003,3.31298,-0.00769481,0.332481,0.979156
617,995,3.31346,-0.00817334,0.332003,0.978781
625,987,3.31242,-0.00891577,0.332478,0.977948
633,979,3.3119,-0.0101826,0.332473,0.977416
641,971,3.31364,-0.00767109,0.331331,0.975502
649,963,3.31334,-0.00833643,0.331788,0.976462
657,955,3.31197,-0.00960599,0.332286,0.975357
665,947,3.31375,-0.00761836,0.331134,0.974442
673,939,3.31337,-0.00832228,0.331135,0.974041
681,931,3.31286,-0.00947767,0.331125,0.973326
689,923,3.31394,-0.00773066,0.331045,0.972112
697,915,3.31367,-0.00831222,0.330451,0.971748
705,907,3.31273,-0.009565,0.330931,0.970849
713,899,3.31424,-0.006095,0.329781,0.96954
721,891,3.3134,-0.0131536,0.329781,0.969401
729,883,3.3129,-0.0144141,0.329785,0.968416
737,875,3.3144,-0.00770738,0.327682,0.966792
745,867,3.31422,-0.00726204,0.327205,0.965937
753,859,3.31246,-0.0102767,0.328633,0.964947
761,851,3.31445,-0.0124936,0.32654,0.964646
769,843,3.31365,-0.0138198,0.327017,0.963442
777,835,3.31517,-0.01028,0.3254,0.962346
785,827,3.31436,-0.00739878,0.324926,0.960381
793,819,3.31402,-0.00805379,0.324933,0.960008
801,811,3.31434,-0.0125913,0.324261,0.958867
809,803,3.31424,-0.00968993,0.32332,0.957057
817,795,3.31523,-0.00779648,0.322646,0.95592
825,787,3.31479,-0.0090128,0.322644,0.955214
833,779,3.31497,-0.00857162,0.322201,0.954498
841,771,3.31456,-0.0131986,0.321967,0.952982
849,763,3.31455,-0.0128785,0.3215,0.952074
857,755,3.31517,-0.0126263,0.321294,0.951068
865,747,3.31453,-0.0105935,0.320933,0.950002
873,739,3.31572,-0.00713709,0.319214,0.94868
881,731,3.31463,-0.00746044,0.319678,0.947042
889,723,3.31419,-0.0150855,0.319214,0.946516
897,715,3.3147,-0.0132992,0.319012,0.945174
905,707,3.3148,-0.0102605,0.317605,0.943549
913,699,3.31521,-0.00683485,0.316937,0.942028
921,691,3.31471,-0.00811257,0.316934,0.941288
929,683,3.31554,-0.0116166,0.316382,0.93966
937,675,3.31506,-0.0129144,0.316382,0.938905
945,667,3.31658,-0.00772296,0.314661,0.937447
953,659,3.31524,-0.0113221,0.315135,0.936317
961,651,3.31646,-0.0061488,0.313537,0.934824
969,643,3.31572,-0.0127461,0.313065,0.933612
977,635,3.3157,-0.01181,0.313315,0.931601
985,627,3.31527,-0.00805067,0.311932,0.930402
993,619,3.31619,-0.00678288,0.311268,0.9289
1001,611,3.31529,-0.00813621,0.311723,0.927951
1009,603,3.31663,-0.00998312,0.309672,0.926306
1017,595,3.31534,-0.0113416,0.310132,0.925382
1025,587,3.31616,-0.00850437,0.30947,0.923497
1033,579,3.31517,-0.0153106,0.309464,0.922043
1041,571,3.31566,-0.0132945,0.308851,0.921
1049,563,3.31463,-0.0153642,0.309258,0.91991
1057,555,3.31588,-0.0091449,0.30721,0.917591
1065,547,3.31655,-0.00779108,0.306545,0.916126
1073,539,3.31574,-0.00815706,0.306639,0.914633
1081,531,3.31605,-0.011803,0.30587,0.912765
1089,523,3.31659,-0.00894864,0.3052,0.910873
1097,515,3.31562,-0.00751908,0.304736,0.909244
1105,507,3.31631,-0.0127771,0.304065,0.907769
1113,499,3.31427,-0.0149336,0.304979,0.906243
1121,491,3.31551,-0.0108792,0.303393,0.904036
1129,483,3.31659,-0.00621181,0.301816,0.902179
1137,475,3.31443,-0.0148806,0.302719,0.900716
1145,467,3.31539,-0.012583,0.301598,0.897124
1153,459,3.31582,-0.00968847,0.300933,0.896757
1161,451,3.3147,-0.0088886,0.300471,0.894771
1169,443,3.31499,-0.011514,0.29935,0.892394
1177,435,3.31529,-0.0103261,0.299141,0.890674
1185,427,3.31579,-0.00729175,0.298018,0.888996
1193,419,3.31422,-0.0150785,0.298468,0.886958
1201,411,3.31409,-0.0110632,0.297806,0.884375
1209,403,3.31497,-0.00974011,0.296689,0.883052
1217,395,3.31528,-0.0124631,0.296006,0.880646
1225,387,3.31328,-0.00838461,0.296482,0.878815
1233,379,3.314,-0.0128928,0.294946,0.876734
1241,371,3.3147,-0.00878041,0.294245,0.874337
1249,363,3.31483,-0.0063828,0.293588,0.872137
1257,355,3.31298,-0.0135775,0.294048,0.870517
1265,347,3.31356,-0.0111524,0.293025,0.868484
1273,339,3.31459,-0.0070346,0.291361,0.866239
1281,331,3.31395,-0.0133406,0.291614,0.864018
1289,323,3.31409,-0.0092318,0.290498,0.861584
1297,315,3.31459,-0.0127438,0.289384,0.858568
1305,307,3.31257,-0.0137738,0.289839,0.856779
1313,299,3.3125,-0.0113732,0.289268,0.854551
1321,291,3.31281,-0.0131068,0.287603,0.851549
1329,283,3.31306,-0.0106294,0.286947,0.849359
1337,275,3.31277,-0.00897383,0.286744,0.846564
1345,267,3.31259,-0.0136048,0.286084,0.84432
1353,259,3.31337,-0.0111588,0.284972,0.84226
1361,251,3.31167,-0.010469,0.284967,0.840017
1369,243,3.31117,-0.00872344,0.284767,0.837253
1377,235,3.31189,-0.0115443,0.283191,0.834976
1385,227,3.31174,-0.010976,0.283423,0.832936
1393,219,3.31207,-0.00666107,0.281892,0.830546
1401,211,3.31236,-0.0101879,0.280775,0.827997
1409,203,3.31181,-0.00953731,0.28058,0.825725
1417,195,3.31077,-0.00876989,0.280124,0.823941
1425,187,3.30979,-0.0154251,0.280383,0.821442
1433,179,3.31023,-0.0117826,0.279273,0.818661
1441,171,3.31083,-0.00924939,0.278167,0.816612
1449,163,3.31023,-0.0139676,0.277972,0.814248
1457,155,3.3115,-0.00845484,0.275952,0.811411
1465,147,3.31104,-0.00599092,0.275304,0.809155
1473,139,3.30856,-0.0132306,0.275752,0.806399
1481,131,3.30833,-0.0127179,0.275561,0.804357
1489,123,3.30901,-0.00812077,0.273989,0.802115
1497,115,3.30911,-0.014731,0.273342,0.800296
1505,107,3.30857,-0.0123393,0.273154,0.797835
1513,99,3.30855,-0.00983945,0.272521,0.795609
1521,91,3.3067,-0.0170669,0.272045,0.793221
1529,83,3.30653,-0.0146303,0.271402,0.790948
1537,75,3.30708,-0.011985,0.270299,0.788918
1545,67,3.3074,-0.0138024,0.268746,0.785908
1553,59,3.30754,-0.009411,0.267647,0.783431
1561,51,3.3069,-0.0142777,0.267005,0.781226
1569,43,3.30513,-0.0154143,0.266999,0.779356
1577,35,3.30553,-0.0128376,0.265901,0.777283
1585,27,3.3058,-0.00842774,0.264807,0.774797
1593,19,3.30607,-0.0113086,0.263265,0.77283
1601,11,3.30639,-0.00876148,0.262176,0.770486
1609,3,3.30315,-0.0174138,0.26262,0.76847

File: HUST_6-2_cycle_feature_matrix.csv
cycle_number,rul,voltage,current,capacity,charge_capacity
1,1910,3.31973,0.0278973,0.286966,1.04202
10,1901,3.30612,-0.0200594,0.304491,1.01546
19,1892,3.3089,-0.0183997,0.30099,1.02322
28,1883,3.3121,-0.0168431,0.29804,1.02813
37,1874,3.31323,-0.017323,0.297223,1.03075
46,1865,3.31417,-0.016065,0.295967,1.03204
55,1856,3.31477,-0.0160845,0.295144,1.03246
64,1847,3.3146,-0.017372,0.295137,1.03174
73,1838,3.31454,-0.0179603,0.294729,1.03164
82,1829,3.31623,-0.0160816,0.293447,1.03081
91,1820,3.31598,-0.0166585,0.293438,1.03046
100,1811,3.31571,-0.0178678,0.293452,1.02984
109,1802,3.31721,-0.0153283,0.292154,1.0293
118,1793,3.3172,-0.0166593,0.292151,1.02857
127,1784,3.31636,-0.0179303,0.292569,1.02769
136,1775,3.31815,-0.0153552,0.291276,1.02718
145,1766,3.31679,-0.0167964,0.29209,1.02597
154,1757,3.31649,-0.0173005,0.292095,1.02572
163,1748,3.31801,-0.0154948,0.291212,1.0246
172,1739,3.31717,-0.0161891,0.29123,1.02427
181,1730,3.31622,-0.0174042,0.292044,1.02319
190,1721,3.31623,-0.0178818,0.292048,1.02295
199,1712,3.31719,-0.0155556,0.291155,1.02203
208,1703,3.31739,-0.0162253,0.291159,1.02168
217,1694,3.31631,-0.0175381,0.292359,1.02055
226,1685,3.316,-0.0181188,0.291988,1.02028
235,1676,3.31685,-0.0157101,0.291076,1.01936
244,1667,3.31643,-0.0157735,0.291479,1.01907
253,1658,3.3155,-0.0165501,0.291883,1.01841
262,1649,3.31573,-0.0170494,0.291876,1.01812
271,1640,3.31421,-0.0184852,0.292883,1.01697
280,1631,3.31607,-0.0165895,0.291419,1.01607
289,1622,3.3154,-0.0171588,0.291829,1.01555
298,1613,3.3152,-0.018493,0.291847,1.01489
307,1604,3.31669,-0.0159182,0.29095,1.0141
316,1595,3.3159,-0.0160786,0.290949,1.01402
325,1586,3.31559,-0.0170923,0.290955,1.01349
334,1577,3.31516,-0.0178915,0.291366,1.01284
343,1568,3.31702,-0.0159549,0.290075,1.01224
352,1559,3.31592,-0.0166159,0.290485,1.0114
361,1550,3.31472,-0.0173757,0.291325,1.01059
370,1541,3.31524,-0.0178604,0.290914,1.01058
379,1532,3.31626,-0.0159767,0.290026,1.00944
388,1523,3.31631,-0.0167173,0.290026,1.00904
397,1514,3.31565,-0.017943,0.290468,1.00827
406,1505,3.31522,-0.0185687,0.290867,1.00766
415,1496,3.31659,-0.0161285,0.289572,1.00705
424,1487,3.31602,-0.0166535,0.289585,1.00661
433,1478,3.31594,-0.0172833,0.290001,1.00627
442,1469,3.31553,-0.0179869,0.290003,1.0059
451,1460,3.31685,-0.0159871,0.289112,1.00481
460,1451,3.31618,-0.016125,0.289515,1.00446
469,1442,3.31534,-0.0169134,0.289942,1.00385
478,1433,3.31487,-0.0174681,0.290324,1.00356
487,1424,3.3142,-0.0182567,0.290777,1.00268
496,1415,3.31576,-0.0163127,0.289485,1.00184
505,1406,3.31476,-0.0170246,0.289892,1.00121
514,1397,3.31511,-0.0175351,0.289462,1.00114
523,1388,3.31442,-0.0189142,0.290345,1.00009
532,1379,3.3154,-0.0164314,0.289424,0.99915
541,1370,3.31495,-0.0170208,0.28942,0.998604
550,1361,3.31483,-0.0183028,0.289451,0.998256
559,1352,3.31393,-0.0183533,0.290359,0.99793
568,1343,3.31573,-0.0164567,0.288986,0.99685
577,1334,3.31516,-0.016954,0.288989,0.996606
586,1325,3.31473,-0.0184039,0.289417,0.995643
595,1316,3.31403,-0.01897,0.289418,0.995352
604,1307,3.31545,-0.0164094,0.288535,0.99456
613,1298,3.31472,-0.0177288,0.288966,0.993675
622,1289,3.31347,-0.0184718,0.289394,0.993066
631,1280,3.31502,-0.016659,0.288503,0.991854
640,1271,3.31514,-0.016594,0.28806,0.99206
649,1262,3.31507,-0.0180255,0.288495,0.991123
658,1253,3.31392,-0.0186305,0.288923,0.990592
667,1244,3.31304,-0.0192837,0.289867,0.990033
676,1235,3.31429,-0.0172958,0.288466,0.98892
685,1226,3.31414,-0.0179799,0.288465,0.98857
694,1217,3.31325,-0.0193876,0.288899,0.987631
703,1208,3.31474,-0.0174118,0.288011,0.986518
712,1199,3.31401,-0.0181389,0.288011,0.985916
721,1190,3.31321,-0.018818,0.288443,0.985562
730,1181,3.31275,-0.0194284,0.288419,0.985189
739,1172,3.31392,-0.0174467,0.287542,0.98408
748,1163,3.3138,-0.017995,0.28753,0.98358
757,1154,3.31265,-0.0194843,0.288418,0.982627
766,1145,3.31363,-0.0176566,0.287525,0.981406
775,1136,3.31337,-0.0180727,0.287519,0.981163
784,1127,3.31234,-0.0197368,0.287545,0.980114
793,1118,3.31384,-0.0170421,0.287051,0.979274
802,1109,3.31328,-0.0177311,0.287043,0.978903
811,1100,3.31228,-0.0197774,0.28795,0.977271
820,1091,3.31351,-0.0171461,0.2866,0.976843
829,1082,3.31318,-0.0185185,0.287046,0.97595
838,1073,3.31204,-0.0199572,0.287499,0.97505
847,1064,3.31366,-0.01777,0.286147,0.97417
856,1055,3.3129,-0.0192745,0.287041,0.973003
865,1046,3.31422,-0.0171168,0.2857,0.972138
874,1037,3.31317,-0.0178637,0.28614,0.971521
883,1028,3.31228,-0.0193533,0.286585,0.970546
892,1019,3.31341,-0.0172838,0.285684,0.969404
901,1010,3.31279,-0.0179557,0.285684,0.969065
910,1001,3.31184,-0.0196224,0.286566,0.968008
919,992,3.31234,-0.0175184,0.285683,0.966668
928,983,3.3111,-0.0189329,0.286128,0.965748
937,974,3.31119,-0.0203482,0.286583,0.964836
946,965,3.31181,-0.0188295,0.285684,0.963417
955,956,3.31053,-0.0196937,0.286131,0.962763
964,947,3.31164,-0.0176712,0.285217,0.961529
973,938,3.31139,-0.0197409,0.285691,0.960352
982,929,3.31187,-0.0177331,0.284782,0.959132
991,920,3.3107,-0.0191838,0.285685,0.956572
1000,911,3.30963,-0.0206681,0.286152,0.957012
1009,902,3.31123,-0.0185642,0.284792,0.956098
1018,893,3.31003,-0.0207351,0.285717,0.954606
1027,884,3.31055,-0.018732,0.284823,0.953419
1036,875,3.30932,-0.0202061,0.285275,0.952459
1045,866,3.31047,-0.0187224,0.284363,0.95095
1054,857,3.30937,-0.0208848,0.284843,0.949732
1063,848,3.31014,-0.0188908,0.284383,0.948218
1072,839,3.30908,-0.0203696,0.284378,0.947489
1081,830,3.30979,-0.019092,0.283943,0.945676
1090,821,3.30835,-0.0205445,0.284405,0.944749
1099,812,3.30951,-0.018374,0.283484,0.943544
1108,803,3.30751,-0.0213929,0.284439,0.941695
1117,794,3.30907,-0.0192879,0.283527,0.940488
1126,785,3.30768,-0.0215063,0.283994,0.939187
1135,776,3.30817,-0.0201796,0.283567,0.937399
1144,767,3.30914,-0.0242264,0.282178,0.935771
1153,758,3.30737,-0.0191764,0.283128,0.934174
1162,749,3.30811,-0.0214383,0.281733,0.932155
1171,740,3.30711,-0.0228235,0.281731,0.9315
1180,731,3.30708,-0.0203424,0.281297,0.928986
1189,722,3.30843,-0.0218815,0.279423,0.927523
1198,713,3.30755,-0.0192165,0.278474,0.925503
1207,704,3.30735,-0.0251599,0.278028,0.9238
1216,695,3.30652,-0.0236699,0.27755,0.922215
1225,686,3.30635,-0.0211426,0.277113,0.919749
1234,677,3.308,-0.0232739,0.274774,0.918216
1243,668,3.30701,-0.0255539,0.275239,0.916942
1252,659,3.30721,-0.0222237,0.274319,0.915034
1261,650,3.30778,-0.0178003,0.272924,0.911305
1270,641,3.30864,-0.016371,0.272,0.911015
1279,632,3.30755,-0.0211388,0.27138,0.908814
1288,623,3.30758,-0.0179426,0.270972,0.906797
1297,614,3.3084,-0.0164082,0.269667,0.905272
1306,605,3.30646,-0.0252685,0.270125,0.903255
1315,596,3.30691,-0.0226643,0.269212,0.901027
1324,587,3.30816,-0.0248462,0.26734,0.899257
1333,578,3.30573,-0.0197052,0.268261,0.897615
1342,569,3.30617,-0.0247311,0.26733,0.895382
1351,560,3.30681,-0.0182327,0.265469,0.893053
1360,551,3.30734,-0.0224445,0.264059,0.891141
1369,542,3.30556,-0.0256701,0.264979,0.889249
1378,533,3.30611,-0.019094,0.263136,0.886719
1387,524,3.3058,-0.0224505,0.263597,0.884859
1396,515,3.30649,-0.0247621,0.261714,0.883025
1405,506,3.30541,-0.0283966,0.260799,0.88038
1414,497,3.30586,-0.0237994,0.259326,0.87793
1423,488,3.30507,-0.0232421,0.259384,0.875537
1432,479,3.30651,-0.0263281,0.257519,0.873419
1441,470,3.3073,-0.0216215,0.256645,0.871022
1450,461,3.30422,-0.0282864,0.258491,0.86975
1459,452,3.30553,-0.0212772,0.255635,0.867482
1468,443,3.30573,-0.0245791,0.254243,0.865076
1477,434,3.30722,-0.0263322,0.251922,0.862477
1486,425,3.30646,-0.0257851,0.251882,0.860075
1495,416,3.30527,-0.0282613,0.252343,0.859074
1504,407,3.30555,-0.0241584,0.250926,0.856095
1513,398,3.30605,-0.0208055,0.249973,0.854062
1522,389,3.30589,-0.0201761,0.249478,0.851893
1531,380,3.30637,-0.0234504,0.248073,0.849512
1540,371,3.3041,-0.0247179,0.248523,0.84749
1549,362,3.30471,-0.0198065,0.247106,0.845057
1558,353,3.30424,-0.0200293,0.247074,0.842338
1567,344,3.30519,-0.0232327,0.245214,0.840257
1576,335,3.30565,-0.0205103,0.244595,0.837913
1585,326,3.30561,-0.0215473,0.242373,0.83539
1594,317,3.30358,-0.0271109,0.243282,0.83394
1603,308,3.30372,-0.0230715,0.242323,0.830919
1612,299,3.3039,-0.0258232,0.242623,0.82967
1621,290,3.30358,-0.0279592,0.24085,0.826493
1630,281,3.30425,-0.0188326,0.240345,0.82437
1639,272,3.30508,-0.0261795,0.237588,0.821937
1648,263,3.30167,-0.030658,0.239042,0.819488
1657,254,3.3031,-0.0213428,0.236575,0.816669
1666,245,3.30353,-0.0274549,0.235193,0.814454
1675,236,3.30253,-0.0270922,0.235089,0.81198
1684,227,3.30361,-0.0240668,0.233662,0.809984
1693,218,3.3028,-0.0283985,0.232687,0.806993
1702,209,3.30418,-0.0254522,0.231259,0.804971
1711,200,3.30463,-0.0204603,0.229832,0.802478
1720,191,3.30217,-0.0310226,0.230283,0.800273
1729,182,3.30183,-0.0282242,0.229627,0.797927
1738,173,3.30207,-0.0275576,0.228761,0.79579
1747,164,3.30236,-0.0254818,0.22778,0.793182
1756,155,3.30302,-0.028767,0.226314,0.790764
1765,146,3.3026,-0.0227354,0.225405,0.787438
1774,137,3.30338,-0.0193964,0.223467,0.785524
1783,128,3.30297,-0.0198137,0.22337,0.782726
1792,119,3.3006,-0.029818,0.223368,0.781092
1801,110,3.30087,-0.031937,0.221484,0.778174
1810,101,3.30151,-0.0313456,0.220938,0.776047
1819,92,3.30126,-0.0291821,0.219939,0.773444
1828,83,3.30199,-0.0216232,0.218054,0.770785
1837,74,3.30293,-0.0259274,0.216177,0.768357
1846,65,3.30209,-0.0217478,0.215614,0.764972
1855,56,3.30189,-0.0232443,0.215046,0.763281
1864,47,3.30218,-0.0301114,0.214042,0.760734
1873,38,3.30241,-0.0223074,0.212152,0.758086
1882,29,3.30266,-0.0201722,0.211144,0.755461
1891,20,3.30265,-0.0193636,0.210571,0.753378
1900,11,3.29965,-0.0309202,0.211004,0.751068
1908,3,3.30112,-0.0244266,0.209597,0.749188