Folder: MyBatteryML/hust_correlation_analysis/matrices (part 2)

File: HUST_1-3_cycle_feature_matrix.csv
cycle_number,rul,voltage,current,capacity,charge_capacity
1,1860,3.31099,0.0334083,0.305631,1.04906
10,1851,3.3026,-0.0140757,0.321734,1.02001
19,1842,3.30715,-0.0113967,0.317665,1.02835
28,1833,3.3097,-0.0112046,0.315091,1.03209
37,1824,3.31008,-0.0122959,0.314182,1.03422
46,1815,3.31108,-0.011149,0.312962,1.03546
55,1806,3.31172,-0.0117086,0.312155,1.03546
64,1797,3.3139,-0.00946599,0.310599,1.03504
73,1788,3.31357,-0.010628,0.310604,1.03432
82,1779,3.31362,-0.0111153,0.310196,1.03416
91,1770,3.31504,-0.00940574,0.309053,1.03325
100,1761,3.31423,-0.0100403,0.309452,1.03269
109,1752,3.31409,-0.0111937,0.309446,1.03193
118,1743,3.31379,-0.0117097,0.309453,1.03162
127,1734,3.31472,-0.0100385,0.309094,1.03031
136,1725,3.31443,-0.0111696,0.309099,1.02961
145,1716,3.31373,-0.0117205,0.309503,1.02908
154,1707,3.31473,-0.00998038,0.308754,1.02802
163,1698,3.31436,-0.0106836,0.309174,1.02746
172,1689,3.31376,-0.0117801,0.309561,1.02654
181,1680,3.31465,-0.00956247,0.308815,1.02577
190,1671,3.31449,-0.0100336,0.308812,1.02546
199,1662,3.31341,-0.0112672,0.310333,1.02435
208,1653,3.31308,-0.0118267,0.309618,1.024
217,1644,3.31448,-0.0095129,0.308865,1.02323
226,1635,3.31333,-0.0103199,0.309664,1.02235
235,1626,3.31308,-0.010817,0.309664,1.02204
244,1617,3.31249,-0.0119578,0.31007,1.02113
253,1608,3.31356,-0.0102708,0.309513,1.02003
262,1599,3.31307,-0.0109159,0.309732,1.01945
271,1590,3.31303,-0.0113364,0.309327,1.01935
280,1581,3.31378,-0.00969897,0.308989,1.01801
289,1572,3.31315,-0.0103393,0.309392,1.01742
298,1563,3.31247,-0.0109617,0.309808,1.0169
307,1554,3.31248,-0.0120127,0.309805,1.01623
316,1545,3.31346,-0.00964317,0.309059,1.0155
325,1536,3.31301,-0.0103245,0.309063,1.0151
334,1527,3.31234,-0.0109658,0.309884,1.01434
343,1518,3.31193,-0.012087,0.309889,1.01366
352,1509,3.31258,-0.0098539,0.309563,1.01269
361,1500,3.31241,-0.0104319,0.309558,1.01233
370,1491,3.31247,-0.0109048,0.309569,1.01206
379,1482,3.31159,-0.0115459,0.30997,1.01145
388,1473,3.31247,-0.00988038,0.309663,1.01018
397,1464,3.3123,-0.0104183,0.309664,1.00984
406,1455,3.31155,-0.0110347,0.310063,1.00924
415,1446,3.31094,-0.0116602,0.310503,1.00875
424,1437,3.31062,-0.0122541,0.310481,1.00831
433,1428,3.31192,-0.00977883,0.309736,1.00763
442,1419,3.31126,-0.0105845,0.310154,1.00695
451,1410,3.31064,-0.0112145,0.310573,1.00639
460,1401,3.31054,-0.0116504,0.310575,1.00613
469,1392,3.31006,-0.012289,0.31057,1.00571
478,1383,3.3112,-0.00998016,0.30983,1.00495
487,1374,3.31107,-0.0111558,0.310264,1.00408
496,1365,3.31027,-0.0117773,0.310668,1.00349
505,1356,3.30985,-0.0124169,0.310872,1.00314
514,1347,3.31121,-0.00997509,0.309929,1.00239
523,1338,3.31053,-0.0106219,0.31043,1.00181
532,1329,3.3103,-0.0111732,0.31037,1.00154
541,1320,3.30974,-0.011816,0.310874,1.00096
550,1311,3.31059,-0.0100864,0.310605,0.999653
559,1302,3.31018,-0.0107237,0.310486,0.999274
568,1293,3.31014,-0.0112144,0.310485,0.998979
577,1284,3.30899,-0.011859,0.310915,0.998417
586,1275,3.30869,-0.0125746,0.311342,0.997808
595,1266,3.31015,-0.0101107,0.310171,0.997263
604,1257,3.30992,-0.0107143,0.310169,0.996885
613,1248,3.30929,-0.0113839,0.310599,0.996317
622,1239,3.30908,-0.0119896,0.311034,0.995787
631,1230,3.31006,-0.0101628,0.310283,0.994648
640,1221,3.3097,-0.0107315,0.310283,0.9943
649,1212,3.30884,-0.0114431,0.310721,0.993717
658,1203,3.30841,-0.0126336,0.311156,0.992839
667,1194,3.30937,-0.0102731,0.310409,0.992024
676,1185,3.30944,-0.0108098,0.310406,0.991696
685,1176,3.3084,-0.0115055,0.310844,0.991117
694,1167,3.30825,-0.0120841,0.310843,0.990739
703,1158,3.30935,-0.010242,0.310103,0.989643
712,1149,3.30923,-0.0102292,0.310094,0.989626
721,1140,3.30856,-0.0115117,0.310532,0.988695
730,1131,3.30779,-0.0122156,0.31097,0.988112
739,1122,3.30741,-0.0127809,0.310955,0.98773
748,1113,3.3087,-0.010975,0.310355,0.986638
757,1104,3.30823,-0.0114851,0.31022,0.986299
766,1095,3.30772,-0.0121916,0.310662,0.984357
775,1086,3.30874,-0.0102957,0.309922,0.984402
784,1077,3.30778,-0.0117023,0.310798,0.983425
793,1068,3.30724,-0.0122527,0.310803,0.983095
802,1059,3.30867,-0.0104363,0.310064,0.981951
811,1050,3.30757,-0.0110653,0.3105,0.981394
820,1041,3.30767,-0.0122664,0.310501,0.980682
829,1032,3.30628,-0.0129236,0.310945,0.980124
838,1023,3.30761,-0.0105606,0.310205,0.97928
847,1014,3.30699,-0.0117242,0.310645,0.978424
856,1005,3.30608,-0.012489,0.311108,0.977831
865,996,3.30729,-0.010584,0.31035,0.976666
874,987,3.30687,-0.0117715,0.310357,0.975973
883,978,3.30608,-0.0124856,0.3108,0.975385
892,969,3.3073,-0.0105983,0.31007,0.974258
901,960,3.30634,-0.011888,0.311262,0.973331
910,951,3.3058,-0.0124904,0.31051,0.972951
919,942,3.30716,-0.0105786,0.309762,0.971809
928,933,3.30629,-0.0119445,0.310221,0.970856
937,924,3.30526,-0.0125864,0.310671,0.970315
946,915,3.3064,-0.0107142,0.309943,0.969191
955,906,3.30547,-0.0120076,0.310392,0.96824
964,897,3.3047,-0.0127312,0.310841,0.967621
973,888,3.30565,-0.0114007,0.310114,0.96618
982,879,3.30505,-0.0120372,0.310104,0.965782
991,870,3.30388,-0.0134775,0.311033,0.964632
1000,861,3.30494,-0.0114938,0.310282,0.963492
1009,852,3.30408,-0.0128003,0.310728,0.962527
1018,843,3.30512,-0.0109341,0.310002,0.961368
1027,834,3.30419,-0.0121932,0.310463,0.960466
1036,825,3.30346,-0.0136103,0.310926,0.959485
1045,816,3.30439,-0.0117073,0.310313,0.958314
1054,807,3.30354,-0.012974,0.31065,0.957401
1063,798,3.30443,-0.010968,0.309916,0.956286
1072,789,3.30392,-0.0122538,0.309913,0.955548
1081,780,3.30474,-0.0102941,0.309176,0.954381
1090,771,3.30332,-0.0124131,0.310116,0.952837
1099,762,3.30239,-0.0137841,0.310588,0.951893
1108,753,3.30338,-0.0117449,0.309851,0.950786
1117,744,3.30211,-0.0132107,0.310321,0.950012
1126,735,3.30257,-0.0119072,0.310067,0.948073
1135,726,3.30162,-0.0132999,0.310544,0.947113
1144,717,3.30276,-0.011822,0.30981,0.945671
1153,708,3.30148,-0.013167,0.310285,0.944733
1162,699,3.30209,-0.0120233,0.310025,0.942903
1171,690,3.30135,-0.0132595,0.31079,0.942191
1180,681,3.30196,-0.0120924,0.309769,0.940387
1189,672,3.30062,-0.0134917,0.310251,0.939435
1198,663,3.30164,-0.0121537,0.309523,0.937889
1207,654,3.30047,-0.0140829,0.310002,0.936633
1216,645,3.30091,-0.0129003,0.30975,0.934813
1225,636,3.29944,-0.0142939,0.31022,0.933802
1234,627,3.30003,-0.0136742,0.309996,0.931729
1243,618,3.30068,-0.0122727,0.309243,0.930124
1252,609,3.29887,-0.0145236,0.310223,0.928533
1261,600,3.29953,-0.0183015,0.309016,0.926996
1270,591,3.30061,-0.0133769,0.307293,0.925192
1279,582,3.29819,-0.0163586,0.308772,0.923053
1288,573,3.29939,-0.0113592,0.307057,0.921336
1297,564,3.29959,-0.0177869,0.30682,0.919214
1306,555,3.29816,-0.018071,0.306944,0.917792
1315,546,3.29887,-0.013841,0.305599,0.915476
1324,537,3.29958,-0.0124558,0.304868,0.913901
1333,528,3.29988,-0.010074,0.304135,0.911618
1342,519,3.29808,-0.0164632,0.304138,0.909544
1351,510,3.29863,-0.0121771,0.302918,0.907226
1360,501,3.2993,-0.0107714,0.302234,0.905644
1369,492,3.29902,-0.0144298,0.301459,0.902758
1378,483,3.29951,-0.0130471,0.30071,0.901148
1387,474,3.29747,-0.0159852,0.301696,0.899212
1396,465,3.2977,-0.0189067,0.300471,0.896896
1405,456,3.29782,-0.0164356,0.299743,0.894898
1414,447,3.29833,-0.0120715,0.298515,0.892297
1423,438,3.29844,-0.0102397,0.297943,0.888277
1432,429,3.29841,-0.0150659,0.297069,0.887496
1441,420,3.29664,-0.0149629,0.29705,0.884986
1450,411,3.29681,-0.0124727,0.296327,0.882995
1459,402,3.29643,-0.019968,0.296096,0.880244
1468,393,3.29672,-0.0155362,0.294865,0.877884
1477,384,3.29647,-0.0137898,0.294635,0.875055
1486,375,3.29673,-0.0130937,0.293911,0.873101
1495,366,3.29628,-0.0169632,0.293183,0.870169
1504,357,3.29685,-0.0142769,0.291954,0.868159
1513,348,3.29694,-0.010616,0.291228,0.865214
1522,339,3.29702,-0.0143333,0.290775,0.862544
1531,330,3.29704,-0.0123794,0.289274,0.859966
1540,321,3.29713,-0.00982848,0.288547,0.857683
1549,312,3.2963,-0.0156972,0.288324,0.854869
1558,303,3.29473,-0.0137051,0.287819,0.85227
1567,294,3.29469,-0.0130008,0.287592,0.850136
1576,285,3.29429,-0.0207304,0.287367,0.847662
1585,276,3.2946,-0.0169356,0.286134,0.844897
1594,267,3.29491,-0.0123241,0.284905,0.842551
1603,258,3.29435,-0.0193951,0.284676,0.840406
1612,249,3.2948,-0.0123531,0.282947,0.836899
1621,240,3.29431,-0.0195615,0.282722,0.834755
1630,231,3.29464,-0.0176439,0.281997,0.832132
1639,222,3.29467,-0.0149376,0.281936,0.829898
1648,213,3.29484,-0.0129221,0.280546,0.827312
1657,204,3.29492,-0.0168708,0.279316,0.824601
1666,195,3.29518,-0.012162,0.27812,0.822247
1675,186,3.29494,-0.0182293,0.277375,0.819639
1684,177,3.29241,-0.0182728,0.277865,0.816911
1693,168,3.29232,-0.0176477,0.277769,0.814739
1702,159,3.29242,-0.0216597,0.276418,0.812053
1711,150,3.29258,-0.0196678,0.275692,0.80946
1720,141,3.29295,-0.0148489,0.27446,0.807082
1729,132,3.29309,-0.0127694,0.273739,0.804762
1738,123,3.29256,-0.0202756,0.273525,0.802378
1747,114,3.29338,-0.0140567,0.271784,0.799531
1756,105,3.29362,-0.0112636,0.271061,0.797288
1765,96,3.29331,-0.0174458,0.270339,0.794695
1774,87,3.29354,-0.0146136,0.269615,0.79245
1783,78,3.29119,-0.0147193,0.270241,0.78972
1792,69,3.29119,-0.0222426,0.269399,0.787815
1801,60,3.29081,-0.0203879,0.26919,0.78476
1810,51,3.29182,-0.0152302,0.267443,0.782833
1819,42,3.29167,-0.0207274,0.266725,0.780615
1828,33,3.29223,-0.0165481,0.265496,0.777883
1837,24,3.29247,-0.0136505,0.264779,0.775648
1846,15,3.29211,-0.0117382,0.264564,0.773037
1855,6,3.29253,-0.0172157,0.263335,0.770777
1858,3,3.29154,-0.0189454,0.263854,0.769862

File: HUST_1-4_cycle_feature_matrix.csv
cycle_number,rul,voltage,current,capacity,charge_capacity
1,1502,3.31231,0.0335935,0.297835,1.04813
8,1495,3.30435,-0.0134885,0.31413,1.01365
15,1488,3.30661,-0.0158444,0.312679,1.02177
22,1481,3.30921,-0.0144444,0.310014,1.02625
29,1474,3.30927,-0.0155298,0.309129,1.02847
36,1467,3.31125,-0.0131239,0.307088,1.03081
43,1460,3.31216,-0.0125886,0.306268,1.03148
50,1453,3.31185,-0.0153277,0.306238,1.0323
57,1446,3.31348,-0.0125465,0.304663,1.03224
64,1439,3.31338,-0.0132156,0.304659,1.0318
71,1432,3.31374,-0.0134886,0.304245,1.03178
78,1425,3.31334,-0.0148235,0.304254,1.03099
85,1418,3.31477,-0.0125528,0.303073,1.03038
92,1411,3.31456,-0.0131028,0.303075,1.03004
99,1404,3.3146,-0.0142416,0.303076,1.02935
106,1397,3.31421,-0.0142664,0.303075,1.02933
113,1390,3.31552,-0.0126162,0.302525,1.02817
120,1383,3.31477,-0.0131579,0.302698,1.02771
127,1376,3.31433,-0.0143381,0.303088,1.02678
134,1369,3.31397,-0.0148743,0.303081,1.02641
141,1362,3.31522,-0.0125964,0.302315,1.0257
148,1355,3.31465,-0.0137181,0.302709,1.02483
155,1348,3.31405,-0.0143957,0.303113,1.02425
162,1341,3.3134,-0.0150437,0.303519,1.02368
169,1334,3.31518,-0.012577,0.302339,1.02321
176,1327,3.31414,-0.0138222,0.303142,1.0221
183,1320,3.31387,-0.014355,0.303137,1.02173
190,1313,3.31316,-0.0150284,0.303533,1.02111
197,1306,3.31432,-0.0127314,0.302764,1.0204
204,1299,3.31364,-0.0134286,0.303169,1.0198
211,1292,3.31311,-0.0145759,0.303579,1.01919
218,1285,3.3129,-0.0151119,0.303571,1.01857
225,1278,3.31213,-0.0151626,0.303965,1.01831
232,1271,3.31376,-0.0127027,0.303167,1.01759
239,1264,3.31262,-0.0135613,0.303584,1.01691
246,1257,3.31197,-0.0147725,0.303991,1.016
253,1250,3.311135,-0.0154861,0.304405,1.01539
260,1243,3.31286,-0.0135652,0.303117,1.01458
267,1236,3.3121,-0.0142115,0.303625,1.01401
274,1229,3.31209,-0.0147608,0.303619,1.01363
281,1222,3.3134,-0.0129566,0.302852,1.01258
288,1215,3.31276,-0.0135399,0.303254,1.01203
295,1208,3.31204,-0.0142799,0.303663,1.0114
302,1201,3.31124,-0.0149109,0.304167,1.01088
309,1194,3.31103,-0.01537,0.304079,1.01058
316,1187,3.31216,-0.0131137,0.3033,1.00976
323,1180,3.31163,-0.0143283,0.303721,1.00885
330,1173,3.31147,-0.0148472,0.303722,1.00856
337,1166,3.31079,-0.0154636,0.304132,1.00799
344,1159,3.31204,-0.0131534,0.303352,1.00718
351,1152,3.31163,-0.0143103,0.303779,1.00637
358,1145,3.31134,-0.014865,0.30378,1.00602
365,1138,3.31051,-0.0155233,0.304193,1.00544
372,1131,3.31179,-0.0131504,0.303654,1.0047
379,1124,3.31123,-0.0137836,0.303843,1.00416
386,1117,3.31051,-0.0143868,0.304254,1.00358
393,1110,3.3105,-0.0150619,0.304256,1.00319
400,1103,3.31145,-0.0131618,0.303914,1.00201
407,1096,3.31107,-0.0137722,0.303916,1.00163
414,1089,3.31027,-0.0143979,0.304328,1.00106
421,1082,3.3098,-0.0150569,0.304764,1.00053
428,1075,3.30896,-0.0156279,0.305185,0.999991
435,1068,3.31035,-0.0133379,0.303963,0.999269
442,1061,3.30991,-0.0140375,0.304389,0.998681
449,1054,3.30919,-0.0146105,0.304816,0.998175
456,1047,3.30864,-0.0152827,0.30517,0.997592
463,1040,3.30815,-0.0159223,0.305236,0.997205
470,1033,3.30957,-0.014033,0.304469,0.996137
477,1026,3.30936,-0.0145576,0.304467,0.995818
484,1019,3.30863,-0.0153252,0.304887,0.995158
491,1012,3.30785,-0.0159823,0.30533,0.994654
498,1005,3.30973,-0.0134227,0.304131,0.994159
505,998,3.30887,-0.0140988,0.304537,0.993574
512,991,3.30816,-0.0147763,0.304964,0.992925
519,984,3.30775,-0.0159989,0.30542,0.992114
526,977,3.30922,-0.013503,0.304192,0.991482
533,970,3.30848,-0.0141804,0.304622,0.990911
540,963,3.30797,-0.0147879,0.305078,0.990431
547,956,3.30744,-0.0160287,0.305513,0.989544
554,949,3.30884,-0.013506,0.303617,0.988975
561,942,3.30817,-0.0141367,0.304734,0.988435
568,935,3.30815,-0.0147163,0.304735,0.988094
575,928,3.30715,-0.0157391,0.305176,0.987336
582,921,3.30865,-0.01358,0.304398,0.986389
589,914,3.3084,-0.0126135,0.30385,0.985824
596,907,3.30726,-0.0148506,0.304835,0.985464
603,900,3.30654,-0.0155879,0.305272,0.984852
610,893,3.30811,-0.0130403,0.304054,0.984285
617,886,3.3076,-0.0143431,0.304493,0.983367
624,879,3.30687,-0.0150538,0.304933,0.982772
631,872,3.30663,-0.0156128,0.305052,0.982444
638,865,3.30572,-0.0162883,0.30537,0.981868
645,858,3.30714,-0.0144275,0.3046,0.980748
652,851,3.30675,-0.0150351,0.304593,0.980381
659,844,3.30618,-0.0156958,0.305033,0.979823
666,837,3.30717,-0.013879,0.304262,0.978643
673,830,3.30699,-0.0132865,0.304151,0.979045
680,823,3.3064,-0.0156847,0.304706,0.977439
687,816,3.30539,-0.0164925,0.305152,0.976811
694,809,3.307,-0.013825,0.303921,0.976255
701,802,3.30636,-0.0151943,0.304371,0.975318
708,795,3.30599,-0.0157972,0.304371,0.974981
715,788,3.305,-0.0164981,0.304806,0.974375
722,781,3.30647,-0.0146115,0.304116,0.973237
729,774,3.30558,-0.0153006,0.30449,0.97268
736,767,3.30486,-0.016664,0.304937,0.971731
743,760,3.30639,-0.0140818,0.303707,0.971118
750,753,3.30603,-0.0147045,0.30371,0.970786
757,746,3.30484,-0.0161032,0.304594,0.96958
764,739,3.30428,-0.0167738,0.304671,0.969186
771,732,3.3062,-0.0134837,0.303267,0.96776
778,725,3.30494,-0.016142,0.304283,0.967203
785,718,3.30423,-0.0167427,0.304275,0.966838
792,711,3.30568,-0.0149112,0.303501,0.965631
799,704,3.30503,-0.0164545,0.303964,0.964622
806,697,3.30587,-0.0139378,0.303179,0.963775
813,690,3.30542,-0.0148509,0.303297,0.96325
820,683,3.30476,-0.0161741,0.303634,0.962346
827,676,3.30585,-0.0142564,0.302858,0.961179
834,669,3.30515,-0.0155691,0.30331,0.960242
841,662,3.30403,-0.0162947,0.303767,0.959659
848,655,3.30536,-0.0143291,0.302994,0.958519
855,648,3.30456,-0.0140697,0.302877,0.957354
862,641,3.30305,-0.0171078,0.303919,0.956621
869,634,3.30465,-0.0151241,0.302664,0.955623
876,627,3.30363,-0.0149477,0.303027,0.954261
883,620,3.304642,-0.0145038,0.302359,0.953547
890,613,3.30368,-0.0146372,0.302712,0.952
897,606,3.30475,-0.0139367,0.302044,0.951409
904,599,3.30431,-0.0138459,0.301928,0.950171
911,592,3.30289,-0.0173344,0.302975,0.949193
918,585,3.3038,-0.0153679,0.302197,0.947994
925,578,3.30273,-0.0167025,0.302674,0.947119
932,571,3.30354,-0.0154105,0.302367,0.945373
939,564,3.30226,-0.0168161,0.302836,0.944422
946,557,3.30312,-0.0148372,0.302054,0.943213
953,550,3.30207,-0.0169292,0.302528,0.941888
960,543,3.30285,-0.0149228,0.301747,0.940689
967,536,3.30181,-0.0170009,0.302232,0.939419
974,529,3.3021,-0.0156926,0.30193,0.93765
981,522,3.30102,-0.0177869,0.302417,0.936371
988,515,3.30187,-0.0150806,0.301521,0.934226
995,508,3.30274,-0.015016,0.300858,0.933277
1002,501,3.30069,-0.0172449,0.301818,0.931711
1009,494,3.3017,-0.0145115,0.300932,0.929589
1016,487,3.30232,-0.0131192,0.300215,0.928029
1023,480,3.30006,-0.0174404,0.30173,0.926496
1030,473,3.30137,-0.0143205,0.300339,0.924697
1037,466,3.29929,-0.0169564,0.301322,0.922931
1044,459,3.29994,-0.0159485,0.300546,0.921166
1051,452,3.29995,-0.0162005,0.300505,0.919846
1058,445,3.3002,-0.0156862,0.30029,0.91758
1065,438,3.30039,-0.0149887,0.299827,0.915522
1072,431,3.29848,-0.0179388,0.300821,0.913597
1079,424,3.29855,-0.017306,0.300548,0.911424
1086,417,3.29839,-0.0167545,0.300279,0.909208
1093,410,3.29881,-0.0148809,0.299565,0.906611
1100,403,3.29868,-0.0196778,0.298729,0.904428
1107,396,3.29886,-0.0178929,0.297952,0.901765
1114,389,3.29899,-0.0217088,0.296671,0.899058
1121,382,3.29881,-0.0191835,0.295897,0.896806
1128,375,3.29926,-0.0153697,0.294615,0.894137
1135,368,3.29705,-0.0172979,0.295117,0.891723
1142,361,3.29697,-0.0223115,0.294343,0.889481
1149,354,3.29748,-0.0185397,0.29306,0.88678
1156,347,3.29726,-0.0242147,0.292288,0.884219
1163,340,3.29692,-0.0206197,0.291513,0.88125
1170,333,3.29754,-0.0178435,0.290232,0.879258
1177,326,3.29701,-0.016154,0.289964,0.87637
1184,319,3.29778,-0.0183865,0.288007,0.873584
1191,312,3.298,-0.0137969,0.286719,0.870991
1198,305,3.29795,-0.019593,0.285938,0.868408
1205,298,3.29804,-0.0177631,0.285156,0.865747
1212,291,3.29827,-0.0150458,0.284375,0.863531
1219,284,3.29805,-0.020951,0.2836,0.860938
1226,277,3.29745,-0.0191996,0.283321,0.858034
1233,270,3.29813,-0.0163036,0.282218,0.856178
1240,263,3.29787,-0.0219289,0.282212,0.853751
1247,256,3.29538,-0.022208,0.281872,0.850831
1254,249,3.2958,-0.0212382,0.281163,0.849094
1261,242,3.29532,-0.0253944,0.280385,0.84616
1268,235,3.29503,-0.0248269,0.280118,0.843946
1275,228,3.2965,-0.0170829,0.277604,0.840797
1282,221,3.29661,-0.0143223,0.276823,0.83855
1289,214,3.29564,-0.0241631,0.277269,0.836402
1296,207,3.29562,-0.0218585,0.276487,0.833928
1303,200,3.2962,-0.0173548,0.275306,0.831391
1310,193,3.29635,-0.0235011,0.274579,0.828852
1317,186,3.29414,-0.0223071,0.274413,0.826924
1324,179,3.2943,-0.0200026,0.273739,0.824404
1331,172,3.29415,-0.0254345,0.272836,0.822161
1338,165,3.29512,-0.0192675,0.27105,0.819392
1345,158,3.29597,-0.0143622,0.269539,0.816974
1352,151,3.29559,-0.0238335,0.269493,0.815261
1359,144,3.29585,-0.0177304,0.268204,0.812241
1366,137,3.29652,-0.0168876,0.267422,0.810295
1373,130,3.29455,-0.0250797,0.267417,0.807903
1380,123,3.29437,-0.0223962,0.267146,0.805411
1387,116,3.29535,-0.0193821,0.265856,0.803402
1394,109,3.29565,-0.0157503,0.265072,0.801494
1401,102,3.29562,-0.02134,0.264295,0.79927
1408,95,3.29437,-0.0188327,0.263519,0.796751
1415,88,3.29479,-0.0174892,0.263003,0.795147
1422,81,3.29484,-0.0257365,0.26273,0.7928
1429,74,3.29526,-0.0202382,0.261436,0.790643
1436,67,3.29657,-0.0135185,0.259363,0.787862
1443,60,3.2946,-0.0231811,0.259365,0.786186
1450,53,3.29505,-0.0203645,0.258572,0.78387
1457,46,3.29549,-0.0173853,0.257779,0.781614
1464,39,3.29587,-0.0144238,0.256991,0.779365
1471,32,3.29637,-0.017932,0.255708,0.777073
1478,25,3.29411,-0.0211972,0.256491,0.775527
1485,18,3.29424,-0.0202163,0.256214,0.773475
1492,11,3.29428,-0.0194018,0.255939,0.771331
1499,4,3.29437,-0.0261078,0.255154,0.768723
1500,3,3.29426,-0.0261449,0.255157,0.768718