Folder: MyBatteryML/hust_correlation_analysis/matrices (part 31)

File: HUST_8-8_cycle_feature_matrix.csv
cycle_number,rul,voltage,current,capacity,charge_capacity
1,1681,3.31482,0.0166921,0.271129,1.03772
9,1673,3.30598,-0.0188332,0.280868,1.01671
17,1665,3.3097,-0.0178199,0.278316,1.02397
25,1657,3.31033,-0.0187231,0.27728,1.02674
33,1649,3.3127,-0.0169685,0.275316,1.02858
41,1641,3.31155,-0.0199831,0.275873,1.02949
49,1633,3.31232,-0.0192502,0.275085,1.03055
57,1625,3.31327,-0.0175169,0.273441,1.02932
65,1617,3.31426,-0.0174588,0.273362,1.02954
73,1609,3.31342,-0.018704,0.273364,1.02888
81,1601,3.31494,-0.0174297,0.271938,1.02767
89,1593,3.31498,-0.0180245,0.272286,1.02733
97,1585,3.31477,-0.0185999,0.272028,1.02702
105,1577,3.31592,-0.0168974,0.271092,1.02587
113,1569,3.31555,-0.017465,0.271084,1.02553
121,1561,3.31532,-0.0187242,0.271461,1.02465
129,1553,3.31595,-0.0169551,0.270896,1.02348
137,1545,3.31609,-0.0174692,0.270509,1.0232
145,1537,3.31518,-0.0181559,0.270577,1.02261
153,1529,3.315,-0.0194605,0.271291,1.02175
161,1521,3.31572,-0.0170474,0.270338,1.02092
169,1513,3.31567,-0.0175873,0.270336,1.02064
177,1505,3.31445,-0.0190789,0.271373,1.01944
185,1497,3.31453,-0.0195114,0.271114,1.01921
193,1489,3.31609,-0.0170717,0.269781,1.01861
201,1481,3.31461,-0.0184115,0.270553,1.01745
209,1473,3.315,-0.0190609,0.270553,1.01711
217,1465,3.3139,-0.0197352,0.270933,1.01652
225,1457,3.3154,-0.0172182,0.269848,1.01597
233,1449,3.31514,-0.0178354,0.270069,1.01541
241,1441,3.31369,-0.0185023,0.270742,1.01458
249,1433,3.31304,-0.0180906,0.271127,1.01455
257,1425,3.31313,-0.0192866,0.271126,1.01392
265,1417,3.31213,-0.019905,0.271511,1.01337
273,1409,3.31423,-0.018003,0.269777,1.01267
281,1401,3.31402,-0.019273,0.270172,1.01182
289,1393,3.31318,-0.0191849,0.270161,1.01183
297,1385,3.31436,-0.0174393,0.269218,1.01066
305,1377,3.31449,-0.0180488,0.269214,1.01035
313,1369,3.31379,-0.0187323,0.269593,1.00974
321,1361,3.31325,-0.0193932,0.269601,1.00941
329,1353,3.31474,-0.0174681,0.268643,1.0083
337,1345,3.31457,-0.0181789,0.269286,1.0077
345,1337,3.31392,-0.0187296,0.269038,1.00742
353,1329,3.31316,-0.0195057,0.269432,1.00682
361,1321,3.31292,-0.0200951,0.269679,1.00651
369,1313,3.31416,-0.0176431,0.268223,1.00565
377,1305,3.31444,-0.0181504,0.268474,1.0054
385,1297,3.3135,-0.019471,0.268859,1.00448
393,1289,3.31303,-0.0202857,0.269265,1.00387
401,1281,3.31415,-0.0176496,0.268301,1.0031
409,1273,3.31402,-0.0183367,0.268687,1.00275
417,1265,3.31377,-0.0189,0.268299,1.00244
425,1257,3.31355,-0.0196918,0.268706,1.00184
433,1249,3.3149,-0.0171521,0.267745,1.00104
441,1241,3.31384,-0.018454,0.268139,1.00014
449,1233,3.31406,-0.0184719,0.268139,1.00013
457,1225,3.31293,-0.0197554,0.268549,0.999284
465,1217,3.31234,-0.0204271,0.26853,0.998891
473,1209,3.31399,-0.0179558,0.267575,0.998057
481,1201,3.31315,-0.0184314,0.267567,0.997776
489,1193,3.3128,-0.0192125,0.267967,0.997164
497,1185,3.31246,-0.019839,0.267962,0.996838
505,1177,3.3139,-0.0172823,0.26701,0.996045
513,1169,3.31386,-0.0178633,0.266997,0.995718
521,1161,3.31278,-0.0192703,0.267399,0.994776
529,1153,3.31226,-0.0200395,0.267814,0.994208
537,1145,3.31223,-0.0206595,0.267803,0.993867
545,1137,3.31307,-0.0180649,0.266835,0.993029
553,1129,3.31288,-0.0193862,0.267236,0.992154
561,1121,3.31275,-0.0201119,0.267239,0.99179
569,1113,3.31133,-0.0208191,0.267638,0.991202
577,1105,3.31259,-0.0182309,0.266684,0.990408
585,1097,3.31237,-0.0195432,0.267094,0.989553
593,1089,3.31136,-0.0209306,0.267496,0.988632
601,1081,3.31293,-0.0180985,0.266122,0.988131
609,1073,3.31235,-0.0188432,0.266523,0.987515
617,1065,3.31147,-0.0203406,0.266911,0.986589
625,1057,3.31306,-0.0176413,0.265643,0.986
633,1049,3.31278,-0.0189072,0.265557,0.985369
641,1041,3.3121,-0.0196121,0.265961,0.984785
649,1033,3.31152,-0.0203976,0.266374,0.984196
657,1025,3.31233,-0.018371,0.265395,0.983037
665,1017,3.31076,-0.0198823,0.266217,0.981849
673,1009,3.31049,-0.0204956,0.26621,0.981543
681,1001,3.31204,-0.0180093,0.265236,0.980607
689,993,3.31212,-0.0192064,0.265242,0.980036
697,985,3.31076,-0.0206623,0.265647,0.979076
705,977,3.31174,-0.0184505,0.264671,0.97801
713,969,3.31112,-0.0194022,0.265089,0.977344
721,961,3.31097,-0.0206743,0.265089,0.976706
729,953,3.31008,-0.0170255,0.265131,0.975271
737,945,3.3106,-0.0193198,0.264509,0.974961
745,937,3.31014,-0.0208464,0.265017,0.974012
753,929,3.31079,-0.0189645,0.264372,0.972562
761,921,3.31072,-0.0193993,0.263697,0.97255
769,913,3.31069,-0.0158656,0.263989,0.971043
777,905,3.31122,-0.0189482,0.264044,0.970178
785,897,3.30993,-0.020363,0.264217,0.969257
793,889,3.30926,-0.02102,0.264211,0.968921
801,881,3.31062,-0.0190026,0.263222,0.967722
809,873,3.30865,-0.0206031,0.264064,0.966739
817,865,3.30868,-0.0218569,0.264057,0.965878
825,857,3.31015,-0.0198238,0.263071,0.964688
833,849,3.30901,-0.0207022,0.263739,0.964031
841,841,3.31084,-0.018525,0.262082,0.963115
849,833,3.30938,-0.0199965,0.262928,0.961987
857,825,3.30875,-0.0215289,0.263359,0.961041
865,817,3.30934,-0.019451,0.262368,0.959865
873,809,3.30884,-0.0208264,0.26279,0.958963
881,801,3.30976,-0.0193385,0.261795,0.957489
889,793,3.30913,-0.0208702,0.262221,0.956531
897,785,3.3075,-0.0223778,0.26265,0.9556
905,777,3.30911,-0.0203323,0.261662,0.954639
913,769,3.30751,-0.0217327,0.262087,0.953501
921,761,3.30869,-0.019689,0.26109,0.952284
929,753,3.30691,-0.021161,0.261519,0.951345
937,745,3.3088,-0.0190743,0.260519,0.950129
945,737,3.30723,-0.0205445,0.260949,0.949219
953,729,3.30626,-0.0228763,0.261816,0.947665
961,721,3.30694,-0.0206264,0.261079,0.946541
969,713,3.30672,-0.0219981,0.260813,0.945874
977,705,3.30766,-0.0200036,0.25982,0.944609
985,697,3.3058,-0.0222929,0.260515,0.943084
993,689,3.30763,-0.0201994,0.260086,0.941869
1001,681,3.30595,-0.0223461,0.260371,0.940609
1009,673,3.30638,-0.0203687,0.259549,0.939085
1017,665,3.30552,-0.0218277,0.259985,0.938176
1025,657,3.30633,-0.0202535,0.258989,0.936704
1033,649,3.30534,-0.0226269,0.25943,0.9354
1041,641,3.30669,-0.0204096,0.258422,0.934193
1049,633,3.30446,-0.0228686,0.259311,0.932623
1057,625,3.30535,-0.0206249,0.258301,0.931436
1065,617,3.30432,-0.022877,0.258741,0.930145
1073,609,3.30544,-0.021612,0.258181,0.928297
1081,601,3.30369,-0.0230439,0.25862,0.927418
1089,593,3.30418,-0.0216967,0.258061,0.925556
1097,585,3.30253,-0.024098,0.258745,0.924239
1105,577,3.30404,-0.0216855,0.257033,0.923297
1113,569,3.30467,-0.0202699,0.256471,0.921475
1121,561,3.30322,-0.0226322,0.256914,0.920153
1129,553,3.30367,-0.0212917,0.256355,0.918303
1137,545,3.3025,-0.0236362,0.256807,0.917005
1145,537,3.30323,-0.0221592,0.256242,0.91519
1153,529,3.30411,-0.020726,0.255212,0.913571
1161,521,3.3022,-0.0232032,0.25613,0.912004
1169,513,3.30257,-0.022498,0.255567,0.909827
1177,505,3.30078,-0.0248317,0.256032,0.908575
1185,497,3.30076,-0.0234581,0.255465,0.906511
1193,489,3.30103,-0.0227606,0.2549,0.904481
1201,481,3.29924,-0.0252129,0.255372,0.903174
1209,473,3.29995,-0.0245151,0.254805,0.900984
1217,465,3.30114,-0.0229815,0.253768,0.899366
1225,457,3.30116,-0.0223042,0.253199,0.897134
1233,449,3.29882,-0.0234581,0.253674,0.895208
1241,441,3.29967,-0.0259315,0.251684,0.893485
1249,433,3.30086,-0.0212026,0.250172,0.891001
1257,425,3.30034,-0.0287374,0.24959,0.88888
1265,417,3.29803,-0.0299904,0.250066,0.886917
1273,409,3.29936,-0.0230236,0.248068,0.88444
1281,401,3.30027,-0.0244165,0.246559,0.881981
1289,393,3.2993,-0.0293333,0.246439,0.880535
1297,385,3.30038,-0.0226983,0.244448,0.877911
1305,377,3.30107,-0.0244328,0.242459,0.875301
1313,369,3.29803,-0.031768,0.244075,0.873716
1321,361,3.29972,-0.0222955,0.241396,0.8715
1329,353,3.29898,-0.0288391,0.240798,0.868594
1337,345,3.29917,-0.0259929,0.23973,0.866296
1345,337,3.30014,-0.0293366,0.237734,0.86422
1353,329,3.29885,-0.0296279,0.237596,0.861616
1361,321,3.30097,-0.0223111,0.235142,0.859181
1369,313,3.29736,-0.0267097,0.236516,0.856664
1377,305,3.29818,-0.0299747,0.234515,0.854634
1385,297,3.29811,-0.0272173,0.233432,0.852263
1393,289,3.29867,-0.0229181,0.2319,0.849563
1401,281,3.29878,-0.0295159,0.230818,0.846956
1409,273,3.29877,-0.0265571,0.229741,0.844675
1417,265,3.29886,-0.0309368,0.228196,0.841982
1425,257,3.29815,-0.028971,0.227555,0.839048
1433,249,3.29829,-0.0269123,0.22647,0.836416
1441,241,3.29897,-0.0305451,0.224921,0.834038
1449,233,3.29877,-0.0283948,0.223826,0.831423
1457,225,3.29984,-0.0217738,0.221828,0.828607
1465,217,3.29859,-0.0219343,0.221624,0.825797
1473,209,3.29921,-0.0264715,0.220079,0.823122
1481,201,3.29959,-0.0219332,0.21852,0.820422
1489,193,3.29815,-0.0246002,0.218765,0.817637
1497,185,3.29897,-0.0280705,0.216748,0.815611
1505,177,3.29968,-0.0234989,0.215191,0.812929
1513,169,3.2987,-0.0215008,0.214527,0.809997
1521,161,3.29915,-0.0261079,0.212956,0.807279
1529,153,3.29917,-0.0239127,0.211831,0.804637
1537,145,3.29895,-0.0215352,0.210702,0.802074
1545,137,3.29701,-0.0250847,0.210104,0.798724
1553,129,3.29913,-0.0227761,0.208008,0.796011
1561,121,3.29863,-0.0298216,0.207086,0.793397
1569,113,3.29717,-0.0325132,0.207054,0.790649
1577,105,3.29919,-0.0229788,0.204151,0.788034
1585,97,3.2979,-0.032777,0.203882,0.7852
1593,89,3.29827,-0.0280305,0.202286,0.782477
1601,81,3.29809,-0.0256023,0.201134,0.780132
1609,73,3.29798,-0.0233236,0.199982,0.777271
1617,65,3.29695,-0.0317885,0.199264,0.774017
1625,57,3.29708,-0.0269878,0.197657,0.771278
1633,49,3.29725,-0.0247042,0.196497,0.768649
1641,41,3.29777,-0.030488,0.194892,0.765631
1649,33,3.29809,-0.0281952,0.193723,0.763012
1657,25,3.29972,-0.0185909,0.191433,0.760086
1665,17,3.2968,-0.0344748,0.191999,0.757148
1673,9,3.29613,-0.0321935,0.190615,0.7545
1679,3,3.29692,-0.0297513,0.189626,0.751901

File: HUST_9-1_cycle_feature_matrix.csv
cycle_number,rul,voltage,current,capacity,charge_capacity
1,2059,3.32025,0.0119708,0.266693,1.03914
11,2049,3.30557,-0.0170129,0.279052,1.02506
21,2039,3.30999,-0.0161015,0.276011,1.02997
31,2029,3.31166,-0.0153573,0.274061,1.03155
41,2019,3.31206,-0.0159046,0.273281,1.03176
51,2009,3.31367,-0.0141349,0.271922,1.03082
61,1999,3.31362,-0.0156135,0.272056,1.02983
71,1989,3.31487,-0.0135548,0.270942,1.02901
81,1979,3.31367,-0.0150856,0.271333,1.02802
91,1969,3.31471,-0.013527,0.270605,1.02669
101,1959,3.31412,-0.0147777,0.270737,1.02583
111,1949,3.31315,-0.0162077,0.271509,1.02462
121,1939,3.31374,-0.0143083,0.270535,1.0235
131,1929,3.31312,-0.0157079,0.270927,1.02256
141,1919,3.31471,-0.0130471,0.269933,1.02178
151,1909,3.31337,-0.0143513,0.270336,1.0209
161,1899,3.31267,-0.0156378,0.271115,1.01978
171,1889,3.31425,-0.013115,0.269996,1.01917
181,1879,3.31314,-0.0145471,0.270264,1.01799
191,1869,3.31296,-0.0150816,0.270836,1.01771
201,1859,3.31162,-0.0164241,0.271317,1.01657
211,1849,3.31287,-0.0138302,0.269941,1.01602
221,1839,3.31297,-0.0146325,0.270339,1.01538
231,1829,3.31152,-0.0158464,0.27073,1.01453
241,1819,3.31112,-0.0167605,0.271133,1.01384
251,1809,3.31234,-0.0140037,0.270246,1.01311
261,1799,3.31162,-0.014629,0.270142,1.01278
271,1789,3.31148,-0.0154503,0.270545,1.01216
281,1779,3.31041,-0.0165638,0.270539,1.01159
291,1769,3.31264,-0.0139886,0.269153,1.01099
301,1759,3.3113,-0.0153559,0.269957,1.00985
311,1749,3.3107,-0.0159783,0.270349,1.00931
321,1739,3.31045,-0.0166821,0.270605,1.00894
331,1729,3.31161,-0.0147319,0.269358,1.00779
341,1719,3.3117,-0.0155019,0.26976,1.00719
351,1709,3.31048,-0.016101,0.269763,1.00713
361,1699,3.31052,-0.0169097,0.270167,1.00627
371,1689,3.31133,-0.0141047,0.268867,1.00574
381,1679,3.31167,-0.0149991,0.269172,1.00508
391,1669,3.31024,-0.0161789,0.269576,1.00427
401,1659,3.3103,-0.0170334,0.269984,1.00362
411,1649,3.31134,-0.0142673,0.268581,1.00307
421,1639,3.31155,-0.0149491,0.268585,1.00274
431,1629,3.3103,-0.0156483,0.269378,1.00217
441,1619,3.31026,-0.0170292,0.269393,1.00126
451,1609,3.3111,-0.0144283,0.26871,1.00041
461,1599,3.31139,-0.0150408,0.268404,1.00012
471,1589,3.31016,-0.0157767,0.268809,0.999527
481,1579,3.31,-0.0164586,0.268814,0.999197
491,1569,3.31081,-0.0138001,0.267814,0.998362
501,1559,3.31109,-0.0145025,0.267812,0.998021
511,1549,3.30868,-0.0190984,0.26939,0.997446
521,1539,3.30982,-0.0165439,0.268628,0.996568
531,1529,3.3089,-0.0170645,0.268627,0.996302
541,1519,3.30954,-0.0128169,0.268269,0.995414
551,1509,3.30977,-0.015838,0.268036,0.994526
561,1499,3.30928,-0.0166135,0.268037,0.994401
571,1489,3.30935,-0.0172586,0.268039,0.993844
581,1479,3.31006,-0.0145643,0.267029,0.992994
591,1469,3.31017,-0.0160703,0.267854,0.991801
601,1459,3.30892,-0.0165668,0.267856,0.991553
611,1449,3.30824,-0.0173887,0.268276,0.99095
621,1439,3.31016,-0.0146379,0.26686,0.990365
631,1429,3.30908,-0.0160682,0.26727,0.989439
641,1419,3.30901,-0.0169021,0.267691,0.988827
651,1409,3.30787,-0.0173931,0.267774,0.988561
661,1399,3.30939,-0.0147807,0.266984,0.987683
671,1389,3.3096,-0.0161584,0.266677,0.987028
681,1379,3.30803,-0.0168474,0.267095,0.98646
691,1369,3.30801,-0.0175265,0.267094,0.986147
701,1359,3.30964,-0.0154378,0.266086,0.984984
711,1349,3.30829,-0.0162512,0.266499,0.984361
721,1339,3.30836,-0.0175987,0.267224,0.983486
731,1329,3.30953,-0.0148262,0.2655,0.982906
741,1319,3.30834,-0.0156519,0.265918,0.982274
751,1309,3.30796,-0.0169822,0.26633,0.981396
761,1299,3.30746,-0.0176687,0.266338,0.981087
771,1289,3.30859,-0.0157063,0.265322,0.979872
781,1279,3.30863,-0.016352,0.265322,0.979556
791,1269,3.30778,-0.0178541,0.265745,0.978394
801,1259,3.30847,-0.0157193,0.265146,0.977215
811,1249,3.30756,-0.0164831,0.265005,0.976875
821,1239,3.3077,-0.017308,0.265242,0.976479
831,1229,3.30888,-0.0151733,0.26414,0.975338
841,1219,3.30772,-0.0165544,0.264559,0.97444
851,1209,3.30736,-0.0172272,0.264556,0.974131
861,1199,3.30924,-0.0152855,0.263533,0.972854
871,1189,3.30807,-0.0165164,0.263962,0.972064
881,1179,3.30651,-0.0181324,0.264808,0.970825
891,1169,3.30829,-0.0152551,0.263455,0.97024
901,1159,3.30739,-0.0167445,0.263795,0.969297
911,1149,3.30657,-0.0181979,0.264215,0.968394
921,1139,3.30758,-0.0160597,0.263202,0.967221
931,1129,3.30621,-0.0175711,0.263628,0.966295
941,1119,3.30555,-0.018308,0.263623,0.965937
951,1109,3.30733,-0.0162203,0.262998,0.964755
961,1099,3.30633,-0.0177301,0.263035,0.963808
971,1089,3.30789,-0.0155863,0.262006,0.962616
981,1079,3.30689,-0.0169524,0.262436,0.961757
991,1069,3.30506,-0.0185003,0.262871,0.960805
1001,1059,3.30656,-0.0163994,0.261844,0.95961
1011,1049,3.30539,-0.0178636,0.262282,0.958703
1021,1039,3.30652,-0.0157295,0.261246,0.957477
1031,1029,3.30584,-0.0172233,0.261687,0.956574
1041,1019,3.30485,-0.018707,0.262117,0.955633
1051,1009,3.30609,-0.0165833,0.261083,0.954408
1061,999,3.30532,-0.0181568,0.261525,0.953472
1071,989,3.30639,-0.0160464,0.260488,0.952235
1081,979,3.30593,-0.0174941,0.260485,0.951581
1091,969,3.307125,-0.015316,0.259462,0.950409
1101,959,3.3059,-0.0167124,0.259888,0.949512
1111,949,3.30459,-0.0183361,0.260332,0.948541
1121,939,3.30623,-0.0168522,0.259301,0.947033
1131,929,3.30491,-0.0183794,0.259735,0.946095
1141,919,3.30582,-0.0162115,0.258689,0.944853
1151,909,3.30498,-0.0177849,0.259142,0.943919
1161,899,3.30568,-0.0163789,0.258536,0.942085
1171,889,3.30434,-0.017801,0.258976,0.940948
1181,879,3.30311,-0.0194006,0.259428,0.940263
1191,869,3.30389,-0.0179963,0.258829,0.938428
1201,859,3.30275,-0.0193784,0.258825,0.937821
1211,849,3.30317,-0.0173544,0.258233,0.936258
1221,839,3.30233,-0.0196558,0.258681,0.934999
1231,829,3.30334,-0.0173213,0.257638,0.933827
1241,819,3.30201,-0.0189208,0.25809,0.932893
1251,809,3.30364,-0.0174528,0.257033,0.9313
1261,799,3.30256,-0.0191289,0.25749,0.930139
1271,789,3.30287,-0.0176008,0.256895,0.928535
1281,779,3.30189,-0.0190768,0.256893,0.927894
1291,769,3.3026,-0.0176908,0.256284,0.925993
1301,759,3.30126,-0.0192469,0.256745,0.925093
1311,749,3.30282,-0.017723,0.255677,0.924748
1321,739,3.30104,-0.0202011,0.256603,0.921953
1331,729,3.3014,-0.0179007,0.255541,0.920712
1341,719,3.30022,-0.0202835,0.256009,0.919447
1351,709,3.30185,-0.0180467,0.254947,0.918181
1361,699,3.29968,-0.0204836,0.255867,0.916618
1371,689,3.30032,-0.0189381,0.254806,0.915044
1381,679,3.30184,-0.0173016,0.253738,0.913486
1391,669,3.30055,-0.0191144,0.254202,0.912475
1401,659,3.30024,-0.0174377,0.253588,0.910661
1411,649,3.29928,-0.0199216,0.254064,0.909363
1421,639,3.30063,-0.0184717,0.252987,0.907713
1431,629,3.29801,-0.0210083,0.253935,0.906164
1441,619,3.2997,-0.0193833,0.252857,0.90459
1451,609,3.29982,-0.0179112,0.252251,0.902657
1461,599,3.29759,-0.0204146,0.2532,0.901102
1471,589,3.2992,-0.0188478,0.25212,0.899482
1481,579,3.29713,-0.0213366,0.252602,0.8982
1491,569,3.29834,-0.0198875,0.251988,0.896262
1501,559,3.29875,-0.0182217,0.250911,0.894677
1511,549,3.29705,-0.0209528,0.251867,0.893033
1521,539,3.29713,-0.0201347,0.251276,0.890847
1531,529,3.29841,-0.018512,0.250182,0.889201
1541,519,3.29565,-0.0211177,0.251155,0.88762
1551,509,3.29657,-0.020466,0.250548,0.885319
1561,499,3.29718,-0.0186187,0.249441,0.883553
1571,489,3.295,-0.0212685,0.249934,0.882426
1581,479,3.29589,-0.020719,0.249326,0.880065
1591,469,3.29601,-0.0197544,0.248723,0.877894
1601,459,3.29381,-0.0225294,0.249218,0.876508
1611,449,3.29433,-0.0210245,0.248606,0.874525
1621,439,3.29436,-0.0201233,0.248004,0.872302
1631,429,3.29446,-0.0193706,0.247391,0.869984
1641,419,3.29222,-0.0230755,0.248395,0.86798
1651,409,3.2934,-0.0222612,0.247282,0.865977
1661,399,3.29332,-0.0212968,0.24666,0.863708
1671,389,3.29283,-0.0206667,0.246056,0.861339
1681,379,3.29271,-0.0198637,0.245443,0.859026
1691,369,3.29263,-0.0190926,0.244829,0.856699
1701,359,3.29001,-0.0229143,0.246118,0.854683
1711,349,3.29008,-0.0229519,0.245252,0.852031
1721,339,3.29006,-0.0231411,0.244635,0.849303
1731,329,3.29039,-0.0200332,0.243494,0.846927
1741,319,3.28993,-0.0271848,0.242345,0.844288
1751,309,3.29035,-0.0224611,0.240673,0.841643
1761,299,3.28948,-0.0299626,0.240047,0.838654
1771,289,3.28944,-0.0250664,0.238367,0.836053
1781,279,3.28986,-0.0203039,0.236688,0.833402
1791,269,3.289,-0.030084,0.236041,0.830716
1801,259,3.28917,-0.0251743,0.234354,0.828115
1811,249,3.28866,-0.0215699,0.233185,0.824726
1821,239,3.28868,-0.0264073,0.231486,0.822127
1831,229,3.28813,-0.0324243,0.230313,0.818856
1841,219,3.28811,-0.0276615,0.228618,0.816174
1851,209,3.29112,-0.0203623,0.225737,0.813162
1861,199,3.28979,-0.0289891,0.225052,0.809826
1871,189,3.29023,-0.0224426,0.222841,0.806876
1881,179,3.28987,-0.0199706,0.221643,0.80421
1891,169,3.28841,-0.0314205,0.221457,0.800828
1901,159,3.28833,-0.0248037,0.219732,0.797564
1911,149,3.28832,-0.0308459,0.218011,0.794619
1921,139,3.29044,-0.0220206,0.215076,0.790896
1931,129,3.28963,-0.0220582,0.214358,0.78823
1941,119,3.28917,-0.0283728,0.213129,0.784943
1951,109,3.28826,-0.0245091,0.211891,0.78155
1961,99,3.28735,-0.0333933,0.210648,0.77859
1971,89,3.29129,-0.0212813,0.206671,0.775292
1981,79,3.28914,-0.0318196,0.206417,0.771244
1991,69,3.28887,-0.027453,0.204661,0.768289
2001,59,3.28932,-0.0230829,0.202905,0.765341
2011,49,3.29054,-0.0272272,0.200796,0.761623
2021,39,3.29037,-0.0213878,0.198637,0.757997
2031,29,3.28968,-0.0306562,0.19734,0.755
2041,19,3.28909,-0.0265681,0.196054,0.751651
2051,9,3.29205,-0.0304727,0.192987,0.748326
2057,3,3.28996,-0.0303871,0.192982,0.746048