Folder: MyBatteryML/hust_correlation_analysis/matrices

File: HUST_1-1_cycle_feature_matrix.csv
cycle_number,rul,voltage,current,capacity,charge_capacity
1,1506,3.30667,-0.00483905,0.370936,1.04004
8,1499,3.29895,-0.00436935,0.374831,1.03433
15,1492,3.29927,-0.00545161,0.374363,1.03369
22,1485,3.30069,-0.00435186,0.373391,1.03243
29,1478,3.30052,-0.00494454,0.372893,1.03204
36,1471,3.30031,-0.00548137,0.372862,1.03161
43,1464,3.30026,-0.00663656,0.37286,1.03076
50,1457,3.30137,-0.00446212,0.371883,1.03024
57,1450,3.30135,-0.00507396,0.371874,1.02979
64,1443,3.30078,-0.00622639,0.372324,1.02881
71,1436,3.30077,-0.00661412,0.371889,1.02872
78,1429,3.30177,-0.00454701,0.371347,1.02795
85,1422,3.30177,-0.00513049,0.371346,1.02754
92,1415,3.30167,-0.00611012,0.371357,1.02686
99,1408,3.30145,-0.00661627,0.371353,1.02647
106,1401,3.30275,-0.00452308,0.370372,1.02588
113,1394,3.30268,-0.00499142,0.370378,1.02556
120,1387,3.30215,-0.00557597,0.370963,1.02498
127,1380,3.3019,-0.00613898,0.370824,1.02458
134,1373,3.30175,-0.00659993,0.370833,1.02429
141,1366,3.3032,-0.00447759,0.36985,1.02368
148,1359,3.30279,-0.00505273,0.370317,1.02318
155,1352,3.30288,-0.00500366,0.369881,1.02339
162,1345,3.30269,-0.00554095,0.369867,1.02296
169,1338,3.30222,-0.00605269,0.370315,1.02246
176,1331,3.30198,-0.0062651,0.370307,1.02223
183,1324,3.30182,-0.00666284,0.370312,1.022
190,1317,3.30333,-0.00450714,0.369333,1.02146
197,1310,3.3032,-0.0050081,0.369341,1.0211
204,1303,3.30312,-0.00501565,0.369319,1.02105
211,1296,3.30302,-0.00499991,0.369281,1.02096
218,1289,3.30266,-0.00522042,0.369294,1.02081
225,1282,3.30242,-0.00629337,0.369747,1.01991
232,1275,3.30206,-0.00627463,0.369744,1.01993
239,1268,3.30378,-0.0044982,0.368757,1.01914
246,1261,3.30341,-0.00465862,0.368772,1.01899
253,1254,3.30346,-0.00516736,0.368778,1.01864
260,1247,3.30331,-0.00560655,0.368788,1.01836
267,1240,3.30297,-0.00563822,0.368777,1.0183
274,1233,3.30298,-0.00622849,0.368776,1.01786
281,1226,3.30278,-0.00672271,0.36879,1.01756
288,1219,3.30392,-0.00458786,0.368264,1.01683
295,1212,3.30398,-0.00457363,0.3678,1.01695
302,1205,3.30402,-0.00503786,0.367818,1.01693
309,1198,3.30343,-0.00565897,0.368258,1.01605
316,1191,3.30314,-0.0057154,0.368248,1.01602
323,1184,3.30311,-0.00668447,0.368283,1.01537
330,1177,3.30456,-0.00442927,0.367298,1.01486
337,1170,3.30414,-0.0045656,0.367293,1.01474
344,1163,3.30398,-0.00561429,0.367786,1.01395
351,1156,3.30397,-0.00553562,0.367179,1.01406
358,1149,3.30346,-0.0061824,0.367756,1.01345
365,1142,3.30328,-0.00668507,0.367787,1.01318
372,1135,3.30485,-0.00447311,0.366811,1.01265
379,1128,3.30453,-0.00447229,0.366785,1.01259
386,1121,3.30448,-0.00553979,0.36682,1.0119
393,1114,3.30433,-0.00557002,0.366782,1.01178
400,1107,3.30381,-0.00622116,0.367227,1.01116
407,1100,3.30371,-0.00619575,0.366779,1.01132
414,1093,3.30339,-0.00675227,0.367224,1.01077
421,1086,3.30481,-0.004549,0.366249,1.01022
428,1079,3.3046,-0.00513344,0.366415,1.00984
435,1072,3.30466,-0.0056462,0.366249,1.00943
442,1065,3.30437,-0.00565744,0.366251,1.00944
449,1058,3.30438,-0.00666886,0.366294,1.00879
456,1051,3.30387,-0.00673002,0.366255,1.00867
463,1044,3.30539,-0.00457273,0.365268,1.00803
470,1037,3.30519,-0.00500061,0.365297,1.00782
477,1030,3.305,-0.00564618,0.365279,1.00729
484,1023,3.30461,-0.00620242,0.365721,1.00674
491,1016,3.30468,-0.00664143,0.365312,1.00666
498,1009,3.30566,-0.00448594,0.364784,1.00593
505,1002,3.30565,-0.00501059,0.364859,1.00555
512,995,3.30526,-0.00556631,0.364798,1.00518
519,988,3.30512,-0.00604279,0.364799,1.00484
526,981,3.30457,-0.00677712,0.365261,1.0042
533,974,3.30642,-0.00449024,0.363833,1.00383
540,967,3.30573,-0.00506688,0.364282,1.00327
547,960,3.30558,-0.00566215,0.364276,1.00282
554,953,3.30558,-0.00619684,0.364274,1.00242
561,946,3.30528,-0.00675693,0.364278,1.00204
568,939,3.30635,-0.00462745,0.363761,1.00129
575,932,3.30633,-0.00522695,0.363774,1.00088
582,925,3.30619,-0.00563081,0.363308,1.00068
589,918,3.30552,-0.00620394,0.363824,1.00015
596,911,3.30522,-0.00672519,0.363758,0.999773
603,904,3.30687,-0.00506854,0.362889,0.998822
610,897,3.30646,-0.00555917,0.3628,0.998477
617,890,3.30597,-0.00617982,0.363237,0.997871
624,883,3.30563,-0.00674979,0.363244,0.997442
631,876,3.30689,-0.00456776,0.362276,0.996887
638,869,3.30666,-0.00509742,0.363106,0.996499
645,862,3.30607,-0.00629944,0.362733,0.995484
652,855,3.30575,-0.00677116,0.362603,0.995168
659,848,3.30717,-0.00455771,0.36176,0.994587
666,841,3.30665,-0.00572635,0.362217,0.993612
673,834,3.30617,-0.00628578,0.36222,0.993204
680,827,3.30583,-0.00678694,0.362254,0.992762
687,820,3.30693,-0.00517718,0.361707,0.991722
694,813,3.30678,-0.0062726,0.361704,0.990889
701,806,3.30573,-0.00689485,0.362129,0.990258
708,799,3.30719,-0.00509759,0.361199,0.989471
715,792,3.30651,-0.00628439,0.361657,0.988477
722,785,3.30607,-0.0068058,0.361641,0.98807
729,778,3.30698,-0.00511082,0.361142,0.986994
736,771,3.3066,-0.00621854,0.361151,0.986201
743,764,3.30757,-0.00409034,0.361469,0.985413
750,757,3.30718,-0.00513734,0.360636,0.984642
757,750,3.30632,-0.00621081,0.361094,0.983753
764,743,3.30729,-0.00465257,0.36059,0.982547
771,736,3.30674,-0.00527409,0.360556,0.982007
778,729,3.30615,-0.0105772,0.360457,0.981059
785,722,3.30724,-0.00751514,0.359631,0.979791
792,715,3.30674,-0.00859589,0.35961,0.978967
799,708,3.30789,-0.00456526,0.35821,0.977252
806,701,3.30728,-0.00522453,0.358198,0.976739
813,694,3.30673,-0.00496243,0.358191,0.975628
820,687,3.30755,-0.00752476,0.357237,0.974384
827,680,3.30709,-0.00854182,0.357226,0.973623
834,673,3.30634,-0.00822754,0.357218,0.972517
841,666,3.30736,-0.00522054,0.356403,0.971193
848,659,3.30665,-0.0054979,0.356264,0.969708
855,652,3.30732,-0.0094822,0.355762,0.968869
862,645,3.30694,-0.00912235,0.355317,0.967714
869,638,3.30808,-0.00508983,0.353908,0.965922
876,631,3.30753,-0.00571918,0.353891,0.965442
883,624,3.30836,-0.00319855,0.352951,0.963776
890,617,3.30756,-0.0085521,0.35295,0.962731
897,610,3.30837,-0.00693368,0.352425,0.961514
904,603,3.30809,-0.00657165,0.351974,0.960602
911,596,3.30695,-0.00693984,0.352334,0.958901
918,589,3.30761,-0.00530278,0.351916,0.957725
925,582,3.30703,-0.0106896,0.35144,0.956734
932,575,3.30817,-0.0066475,0.350075,0.955009
939,568,3.30691,-0.00842868,0.350974,0.953486
946,561,3.30837,-0.00377063,0.349112,0.952219
953,554,3.30703,-0.0112419,0.349572,0.95086
960,547,3.30784,-0.00955311,0.349064,0.94975
967,540,3.3072,-0.00838174,0.348614,0.94808
974,533,3.30811,-0.00576753,0.347663,0.946685
981,526,3.30884,-0.0026909,0.346719,0.945114
988,519,3.3072,-0.0102354,0.347627,0.943618
995,512,3.30866,-0.00612425,0.345788,0.941987
1002,505,3.30736,-0.00636832,0.346228,0.940356
1009,498,3.30811,-0.00527751,0.345738,0.938821
1016,491,3.30695,-0.0113151,0.345743,0.93733
1023,484,3.3078,-0.00722609,0.344385,0.935531
1030,477,3.3085,-0.00609765,0.343866,0.934015
1037,470,3.30751,-0.00494185,0.343861,0.932207
1044,463,3.30796,-0.00810228,0.342925,0.930583
1051,456,3.30857,-0.00698439,0.342438,0.929049
1058,449,3.30746,-0.00590069,0.342428,0.92716
1065,442,3.3085,-0.00320359,0.341037,0.925647
1072,435,3.30678,-0.0108101,0.34193,0.924146
1079,428,3.30798,-0.00678524,0.34056,0.922313
1086,421,3.30817,-0.00477975,0.340073,0.920063
1093,414,3.30688,-0.0108018,0.340112,0.918621
1100,407,3.30768,-0.0081327,0.339193,0.916929
1107,400,3.30778,-0.00569302,0.338615,0.91497
1114,393,3.30713,-0.00503193,0.338196,0.912976
1121,386,3.30729,-0.00972016,0.337677,0.911414
1128,379,3.30764,-0.00768484,0.337189,0.909186
1135,372,3.30838,-0.0027498,0.335857,0.906683
1142,365,3.30694,-0.004479,0.336286,0.905333
1149,358,3.30706,-0.00833966,0.335835,0.90317
1156,351,3.30741,-0.00471867,0.334901,0.900828
1163,344,3.30801,-0.00266379,0.333977,0.897337
1170,337,3.30626,-0.00950921,0.334424,0.89666
1177,330,3.30651,-0.00744249,0.333954,0.894471
1184,323,3.307,-0.00387676,0.333117,0.892076
1191,316,3.30713,-0.00861814,0.332565,0.890631
1198,309,3.30574,-0.00805962,0.33256,0.888371
1205,302,3.30588,-0.0109944,0.331689,0.885651
1212,295,3.30608,-0.00891851,0.331182,0.883435
1219,288,3.30636,-0.00691597,0.330748,0.881155
1226,281,3.30696,-0.00332329,0.329377,0.87895
1233,274,3.30491,-0.0117083,0.330234,0.877009
1240,267,3.30509,-0.00907007,0.32976,0.875163
1247,260,3.30546,-0.00605629,0.328856,0.872374
1254,253,3.30532,-0.00991703,0.328391,0.870237
1261,246,3.3055,-0.00792191,0.327931,0.867937
1268,239,3.30391,-0.00733288,0.327924,0.865684
1275,232,3.30372,-0.0118472,0.3283,0.863176
1282,225,3.30384,-0.00977655,0.32702,0.860898
1289,218,3.30386,-0.00767425,0.326567,0.858687
1296,211,3.30453,-0.00390219,0.325212,0.856466
1303,204,3.30404,-0.00944483,0.32521,0.854469
1310,197,3.30399,-0.00644077,0.324758,0.851493
1317,190,3.30286,-0.00578369,0.324267,0.849377
1324,183,3.30253,-0.0114348,0.324307,0.847341
1331,176,3.30234,-0.00682303,0.323406,0.844189
1338,169,3.30284,-0.0046112,0.322507,0.842137
1345,162,3.30205,-0.00939141,0.322524,0.839371
1352,155,3.30274,-0.00549857,0.32117,0.837165
1359,148,3.30269,-0.00338158,0.320728,0.834916
1366,141,3.30265,-0.00808299,0.320196,0.832325
1373,134,3.30258,-0.00432067,0.319404,0.829939
1380,127,3.30037,-0.00593331,0.320317,0.827341
1387,120,3.30011,-0.0100078,0.319884,0.825179
1394,113,3.30079,-0.00682286,0.318532,0.822486
1401,106,3.30025,-0.0110082,0.318087,0.820225
1408,99,3.30033,-0.00883944,0.317658,0.818009
1415,92,3.30033,-0.00666559,0.317233,0.815787
1422,85,3.30011,-0.00983003,0.316344,0.812989
1429,78,3.30012,-0.00605315,0.315463,0.810552
1436,71,3.29864,-0.00693145,0.315455,0.808656
1443,64,3.2983,-0.0117974,0.315034,0.806041
1450,57,3.2982,-0.00792914,0.314156,0.803647
1457,50,3.29841,-0.00470958,0.31328,0.800825
1464,43,3.29832,-0.00890802,0.3124,0.798735
1471,36,3.29823,-0.00502164,0.311537,0.796365
1478,29,3.29786,-0.00988807,0.311123,0.793782
1485,22,3.29596,-0.0102095,0.311108,0.792212
1492,15,3.29604,-0.00696757,0.310235,0.789379
1499,8,3.29593,-0.0111889,0.309373,0.787319
1504,3,3.29597,-0.00832596,0.30896,0.785503

File: HUST_1-2_cycle_feature_matrix.csv
cycle_number,rul,voltage,current,capacity,charge_capacity
1,2680,3.31552,-0.00614179,0.329367,1.05461
14,2667,3.30739,-0.00797103,0.333757,1.04673
27,2654,3.30764,-0.00746964,0.333125,1.04482
40,2641,3.30836,-0.00657741,0.332324,1.04314
53,2628,3.30776,-0.00877428,0.332743,1.04155
66,2615,3.30858,-0.00717041,0.331626,1.04055
79,2602,3.30815,-0.00883932,0.332792,1.03931
92,2589,3.30914,-0.00715956,0.330953,1.03845
105,2576,3.30852,-0.00833271,0.331443,1.0375
118,2563,3.30835,-0.0093364,0.331367,1.03685
131,2550,3.30932,-0.00772538,0.330668,1.03421
144,2537,3.30915,-0.00876365,0.330542,1.03506
157,2524,3.30811,-0.00931627,0.33112,1.03459
170,2511,3.30943,-0.00775365,0.330427,1.03341
183,2498,3.30889,-0.00794278,0.330412,1.03324
196,2485,3.30872,-0.008855,0.330417,1.03266
209,2472,3.30821,-0.00947181,0.330415,1.03225
222,2459,3.30962,-0.00729108,0.329685,1.03135
235,2446,3.30912,-0.00791808,0.329689,1.03096
248,2433,3.30882,-0.00896865,0.329705,1.03032
261,2420,3.30836,-0.00961944,0.330118,1.02972
274,2407,3.31013,-0.00719884,0.328592,1.02945
287,2394,3.30983,-0.0078686,0.328594,1.02901
300,2381,3.30926,-0.0089841,0.329017,1.02813
313,2368,3.30878,-0.00944009,0.329029,1.02789
326,2355,3.31027,-0.0072769,0.327911,1.02722
339,2342,3.31024,-0.00833016,0.327927,1.0266
352,2329,3.30996,-0.00896826,0.328058,1.02595
365,2316,3.30964,-0.00940946,0.327925,1.02589
378,2303,3.31102,-0.0077446,0.327266,1.02486
391,2290,3.31081,-0.00830332,0.32727,1.02451
404,2277,3.31042,-0.00876484,0.327267,1.02421
417,2264,3.30977,-0.00952534,0.327657,1.02345
430,2251,3.31096,-0.00727402,0.326544,1.02285
443,2238,3.31086,-0.00787158,0.326544,1.02248
456,2225,3.31054,-0.00842026,0.326541,1.0221
469,2212,3.3099,-0.00956803,0.326997,1.02131
482,2199,3.31185,-0.00720888,0.325431,1.02083
495,2186,3.31117,-0.00774417,0.325864,1.02039
508,2173,3.31087,-0.00851347,0.325873,1.0199
521,2160,3.31025,-0.00952627,0.326308,1.01913
534,2147,3.31216,-0.00715652,0.324788,1.0188
547,2134,3.31167,-0.0083593,0.325207,1.01787
560,2121,3.31133,-0.0088848,0.3252,1.0175
573,2108,3.31094,-0.00956759,0.325197,1.01705
586,2095,3.3124,-0.00724187,0.324091,1.0165
599,2082,3.31235,-0.0078473,0.324097,1.01612
612,2069,3.31202,-0.00831578,0.324839,1.01558
625,2056,3.31171,-0.00950335,0.324102,1.01507
638,2043,3.31319,-0.00713607,0.322988,1.01453
651,2030,3.3125,-0.00795702,0.322761,1.01383
664,2017,3.31231,-0.00845227,0.323407,1.01351
677,2004,3.31204,-0.00952255,0.323411,1.01283
690,1991,3.31345,-0.00726254,0.322303,1.01222
703,1978,3.31299,-0.00786216,0.322272,1.01174
716,1965,3.31308,-0.00892236,0.322313,1.01118
729,1952,3.31252,-0.00901666,0.322273,1.01103
742,1939,3.31421,-0.00719913,0.321201,1.01021
755,1926,3.31366,-0.00836243,0.32161,1.00927
768,1913,3.31311,-0.00897062,0.321618,1.00889
781,1900,3.3128,-0.0094907,0.321608,1.00853
794,1887,3.31414,-0.0078564,0.320922,1.00737
807,1874,3.31375,-0.00838534,0.320926,1.00702
820,1861,3.31338,-0.00898176,0.320925,1.00663
833,1848,3.31438,-0.0072513,0.320241,1.00554
846,1835,3.31413,-0.00785051,0.320224,1.00509
859,1822,3.31393,-0.0089774,0.320241,1.0044
872,1809,3.31314,-0.00969163,0.321397,1.00374
885,1796,3.31451,-0.0078357,0.319553,1.00289
898,1783,3.31382,-0.00903655,0.319995,1.00202
911,1770,3.31294,-0.00972536,0.320393,1.00134
924,1757,3.31445,-0.00786088,0.319317,1.00056
937,1744,3.3138,-0.00857181,0.31972,0.999879
950,1731,3.31362,-0.00915063,0.319278,0.999588
963,1718,3.31426,-0.00752646,0.319038,0.998284
976,1705,3.31413,-0.00855545,0.319026,0.997855
989,1692,3.31328,-0.00982383,0.319456,0.996643
1002,1679,3.31438,-0.00797386,0.31877,0.995585
1015,1666,3.31397,-0.00913355,0.318771,0.99483
1028,1653,3.31322,-0.00978577,0.318766,0.994372
1041,1640,3.31444,-0.00799155,0.318098,0.993336
1054,1627,3.31364,-0.00919635,0.318527,0.992401
1067,1614,3.31445,-0.00744747,0.31728,0.991284
1080,1601,3.31405,-0.00861615,0.318276,0.990389
1093,1588,3.3134,-0.00983433,0.318273,0.98958
1106,1575,3.31454,-0.00755569,0.317156,0.988906
1119,1562,3.31362,-0.00879418,0.31802,0.987814
1132,1549,3.31498,-0.00747191,0.316911,0.986564
1145,1536,3.31393,-0.00825374,0.317307,0.985787
1158,1523,3.31308,-0.00950445,0.317768,0.985177
1171,1510,3.3144,-0.00773344,0.316626,0.983854
1184,1497,3.31359,-0.0093302,0.317081,0.98282
1197,1484,3.31481,-0.00608576,0.315973,0.981428
1210,1471,3.31401,-0.00734523,0.316402,0.980474
1223,1458,3.31321,-0.0114659,0.315987,0.979317
1236,1445,3.31456,-0.0111301,0.315299,0.978523
1249,1432,3.31438,-0.00919843,0.314453,0.977538
1262,1419,3.31526,-0.00748964,0.31377,0.976337
1275,1406,3.31477,-0.00722125,0.313752,0.975179
1288,1393,3.31356,-0.0139698,0.314181,0.974572
1301,1380,3.31498,-0.0121123,0.313071,0.973619
1314,1367,3.31445,-0.0102648,0.312771,0.972385
1327,1354,3.3137,-0.00994983,0.31264,0.971295
1340,1341,3.31465,-0.00972023,0.312396,0.970322
1353,1328,3.31414,-0.00788629,0.311959,0.969039
1366,1315,3.31534,-0.00558636,0.310861,0.968392
1379,1302,3.31429,-0.0128204,0.311285,0.967515
1392,1289,3.31408,-0.0109335,0.31086,0.966288
1405,1276,3.31538,-0.00907469,0.309754,0.965345
1418,1263,3.31448,-0.0103327,0.310191,0.964415
1431,1250,3.31384,-0.00996194,0.310192,0.963365
1444,1237,3.31465,-0.0128741,0.309071,0.961935
1457,1224,3.31368,-0.0120548,0.309063,0.961371
1470,1211,3.31551,-0.00910951,0.307538,0.959745
1483,1198,3.31419,-0.0105043,0.308392,0.958584
1496,1185,3.31387,-0.010082,0.307966,0.957705
1509,1172,3.31437,-0.0134314,0.30731,0.955966
1522,1159,3.31366,-0.0131593,0.307285,0.954767
1535,1146,3.315,-0.00974537,0.305768,0.953688
1548,1133,3.31398,-0.00800921,0.305761,0.952178
1561,1120,3.31497,-0.00615159,0.30508,0.951057
1574,1107,3.31447,-0.00742275,0.305142,0.950263
1587,1094,3.31533,-0.0107151,0.303981,0.948646
1600,1081,3.31407,-0.0105622,0.304533,0.947305
1613,1068,3.31497,-0.00767738,0.303307,0.945695
1626,1055,3.31397,-0.013553,0.303307,0.944591
1639,1042,3.31501,-0.0107294,0.302212,0.942961
1652,1029,3.31387,-0.0110901,0.302654,0.94135
1665,1016,3.31473,-0.00770783,0.30154,0.939995
1678,1003,3.31342,-0.00803177,0.301962,0.938358
1691,990,3.31451,-0.0123253,0.300864,0.937425
1704,977,3.31331,-0.0110324,0.300873,0.935664
1717,964,3.31417,-0.00996871,0.300192,0.934039
1730,951,3.31305,-0.00858831,0.30019,0.932302
1743,938,3.31319,-0.013711,0.299949,0.930602
1756,925,3.31425,-0.00924639,0.298433,0.928813
1769,912,3.31284,-0.00966675,0.298866,0.927141
1782,899,3.31375,-0.0083013,0.298187,0.925939
1795,886,3.31187,-0.0149797,0.298605,0.923998
1808,873,3.3123,-0.0122926,0.297925,0.922079
1821,860,3.31338,-0.0078057,0.29641,0.920253
1834,847,3.31165,-0.00975453,0.297245,0.918753
1847,834,3.31185,-0.0138777,0.296586,0.91657
1860,821,3.31228,-0.0116604,0.295914,0.914356
1873,808,3.3107,-0.0120294,0.296334,0.912683
1886,795,3.31134,-0.00823718,0.295245,0.910277
1899,782,3.31171,-0.0133776,0.294478,0.908796
1912,769,3.31214,-0.00954579,0.293478,0.906366
1925,756,3.31062,-0.0104803,0.293912,0.904378
1938,743,3.31086,-0.00768859,0.293227,0.902451
1951,730,3.31125,-0.0108134,0.292151,0.899777
1964,717,3.31123,-0.0096853,0.291899,0.898032
1977,704,3.31152,-0.00958454,0.29168,0.895749
1990,691,3.30978,-0.0105972,0.292103,0.893682
2003,678,3.30981,-0.0148078,0.291444,0.891525
2016,665,3.31002,-0.0125638,0.290781,0.889307
2029,652,3.31048,-0.0086446,0.289697,0.886928
2042,639,3.31073,-0.00645012,0.28904,0.884616
2055,626,3.31011,-0.013069,0.289239,0.882132
2068,613,3.30864,-0.00848929,0.290115,0.880653
2081,600,3.30866,-0.0128127,0.289582,0.878462
2094,587,3.30882,-0.0111492,0.288803,0.875888
2107,574,3.30878,-0.0128744,0.287272,0.872888
2120,561,3.30899,-0.0106195,0.286737,0.870559
2133,548,3.30943,-0.007089,0.285516,0.867956
2146,535,3.30916,-0.00754297,0.285708,0.86641
2159,522,3.30709,-0.0143627,0.285721,0.863811
2172,509,3.30721,-0.0119738,0.285045,0.861836
2185,496,3.30741,-0.00968836,0.284387,0.859311
2198,483,3.30722,-0.00973332,0.284618,0.856777
2211,470,3.30722,-0.00738433,0.283968,0.854551
2224,457,3.3071,-0.0125115,0.283313,0.851973
2237,444,3.30731,-0.0102688,0.282706,0.849712
2250,431,3.30749,-0.00610614,0.282319,0.847322
2263,418,3.30563,-0.0145989,0.281551,0.845082
2276,405,3.30594,-0.0105026,0.280451,0.842647
2289,392,3.30591,-0.0157187,0.27982,0.840119
2302,379,3.30599,-0.0133834,0.279255,0.837776
2315,366,3.30599,-0.00995041,0.278504,0.834878
2328,353,3.30607,-0.00757012,0.277838,0.832602
2341,340,3.30617,-0.0110436,0.276784,0.829929
2354,327,3.30612,-0.0104,0.276544,0.827805
2367,314,3.30646,-0.00618366,0.275463,0.825417
2380,301,3.30433,-0.00906449,0.276324,0.823506
2393,288,3.30431,-0.0143537,0.275695,0.820995
2406,275,3.30446,-0.0119338,0.275047,0.818759
2419,262,3.30458,-0.00951183,0.274402,0.817009
2432,249,3.30499,-0.0140616,0.273433,0.814518
2445,236,3.30521,-0.0116287,0.272669,0.81226
2458,223,3.3035,-0.0115578,0.272666,0.809705
2471,210,3.30324,-0.00918759,0.272468,0.807272
2484,197,3.3033,-0.00851399,0.272179,0.805249
2497,184,3.30299,-0.0151333,0.272099,0.803248
2510,171,3.303925,-0.0107169,0.27057,0.801036
2523,158,3.30402,-0.00817564,0.269927,0.798806
2536,145,3.30182,-0.016643,0.27038,0.796789
2549,132,3.30209,-0.0141095,0.269714,0.794514
2562,119,3.30229,-0.011622,0.269075,0.79226
2575,106,3.30311,-0.00896341,0.267986,0.790233
2588,93,3.30123,-0.0100707,0.268432,0.788204
2601,80,3.3013,-0.0130524,0.267362,0.785843
2614,67,3.30133,-0.0123778,0.267168,0.783791
2627,54,3.30209,-0.0152379,0.265672,0.7817
2640,41,3.30159,-0.0146983,0.265909,0.779386
2653,28,3.30023,-0.0139249,0.265476,0.777369
2666,15,3.30054,-0.0106363,0.264822,0.775442
2678,3,3.30137,-0.00791866,0.263755,0.773458