Folder: MyBatteryML/hust_correlation_analysis/matrices (part 29)

File: HUST_8-4_cycle_feature_matrix.csv
cycle_number,rul,voltage,current,capacity,charge_capacity
1,1887,3.31914,-0.0120911,0.281361,1.01154
10,1878,3.30798,-0.0113627,0.284937,1.00468
19,1869,3.3082,-0.0132538,0.284509,1.00399
28,1860,3.30947,-0.011279,0.283154,1.00309
37,1851,3.30981,-0.0119825,0.282717,1.00296
46,1842,3.30909,-0.0133186,0.283131,1.00202
55,1833,3.30898,-0.0139346,0.283119,1.00168
64,1824,3.31061,-0.0121084,0.281776,1.00072
73,1815,3.31023,-0.0126948,0.28176,1.0004
82,1806,3.31026,-0.0140647,0.281776,0.999753
91,1797,3.31114,-0.0114021,0.280833,0.998948
100,1788,3.31129,-0.0121587,0.280828,0.998558
109,1779,3.31142,-0.0126807,0.280412,0.998533
118,1770,3.31065,-0.0134612,0.280832,0.997922
127,1761,3.31025,-0.0141175,0.280827,0.997585
136,1752,3.31212,-0.0114381,0.279479,0.997036
145,1743,3.31218,-0.0120748,0.279473,0.996691
154,1734,3.31137,-0.0128596,0.279888,0.996085
163,1725,3.31179,-0.0133542,0.279474,0.99609
172,1716,3.31162,-0.0139679,0.279468,0.995764
181,1707,3.31264,-0.0113856,0.278549,0.995196
190,1698,3.31214,-0.0121,0.278964,0.994376
199,1689,3.31235,-0.0121202,0.278551,0.994607
208,1680,3.31195,-0.0127561,0.278538,0.994506
217,1671,3.31167,-0.0134704,0.278956,0.993664
226,1662,3.31126,-0.0135989,0.278958,0.9936
235,1653,3.31083,-0.0142061,0.278958,0.993297
244,1644,3.31287,-0.0115665,0.277604,0.992705
253,1635,3.31269,-0.0115164,0.27759,0.992678
262,1626,3.31268,-0.0113612,0.277567,0.992679
271,1617,3.31207,-0.0122671,0.278003,0.992309
280,1608,3.31187,-0.0129062,0.277992,0.9917
289,1599,3.31241,-0.0134778,0.277576,0.991672
298,1590,3.312,-0.0135816,0.277579,0.991626
307,1581,3.31191,-0.0142603,0.277573,0.99127
316,1572,3.3138,-0.0115902,0.276224,0.990737
325,1563,3.31364,-0.0121584,0.276216,0.990422
334,1554,3.3133,-0.0122203,0.276217,0.990378
343,1545,3.31307,-0.0128636,0.276224,0.990095
352,1536,3.31302,-0.0135427,0.276225,0.98975
361,1527,3.31268,-0.0142083,0.276224,0.989407
370,1518,3.31447,-0.0115746,0.274876,0.988823
379,1509,3.31423,-0.0115976,0.274871,0.988809
388,1500,3.31392,-0.012272,0.274869,0.988453
397,1491,3.31348,-0.0129008,0.275296,0.987957
406,1482,3.31379,-0.0135426,0.274873,0.987831
415,1473,3.31375,-0.0141896,0.274868,0.9875
424,1464,3.3153,-0.0115243,0.273517,0.986933
433,1455,3.31494,-0.0122174,0.273935,0.986365
442,1446,3.3145,-0.0129403,0.274124,0.986019
451,1437,3.31429,-0.013548,0.273938,0.985719
460,1428,3.31394,-0.0142492,0.27394,0.985354
469,1419,3.31583,-0.01093,0.272586,0.985108
478,1410,3.31526,-0.0115589,0.272584,0.984797
487,1401,3.31512,-0.0121121,0.272574,0.984468
496,1392,3.31462,-0.0129636,0.272987,0.983827
505,1383,3.31511,-0.0135655,0.272577,0.983741
514,1374,3.31488,-0.0136106,0.272567,0.983703
523,1365,3.31657,-0.0109663,0.271214,0.983117
532,1356,3.31614,-0.0115778,0.27121,0.982794
541,1347,3.31599,-0.012244,0.271213,0.982455
550,1338,3.3156,-0.0129448,0.271212,0.982112
559,1329,3.31535,-0.013616,0.271207,0.981754
568,1320,3.31456,-0.0143793,0.27162,0.981142
577,1311,3.3166,-0.0116437,0.270272,0.980624
586,1302,3.31616,-0.0122811,0.270264,0.980284
595,1293,3.31629,-0.0129798,0.270266,0.979917
604,1284,3.31605,-0.0136627,0.270271,0.979594
613,1275,3.31573,-0.0143057,0.270277,0.979289
622,1266,3.31758,-0.0117101,0.268923,0.978654
631,1257,3.31744,-0.0123607,0.268921,0.97834
640,1248,3.31693,-0.0129448,0.26892,0.978042
649,1239,3.31665,-0.0136608,0.268919,0.977658
658,1230,3.31634,-0.0144789,0.26892,0.977258
667,1221,3.31787,-0.011647,0.267229,0.976718
676,1212,3.31734,-0.0123791,0.267969,0.976142
685,1203,3.31671,-0.0131296,0.267968,0.975749
694,1194,3.3167,-0.0138272,0.267582,0.976727
703,1185,3.31656,-0.0144198,0.267959,0.975057
712,1176,3.31809,-0.0124348,0.267021,0.973931
721,1167,3.31782,-0.013028,0.267023,0.973637
730,1158,3.31759,-0.0137119,0.266671,0.973261
739,1149,3.31731,-0.0143839,0.267023,0.972935
748,1140,3.31861,-0.0124576,0.266076,0.971745
757,1131,3.31855,-0.013085,0.266067,0.971396
766,1122,3.31793,-0.0133028,0.266065,0.971285
775,1113,3.31782,-0.0145171,0.266069,0.970671
784,1104,3.31934,-0.0117499,0.264981,0.970079
793,1095,3.31859,-0.0126042,0.265118,0.969453
802,1086,3.31846,-0.0138763,0.265115,0.968795
811,1077,3.31763,-0.0145323,0.265524,0.968259
820,1068,3.31961,-0.0125131,0.264164,0.96729
829,1059,3.31872,-0.0133146,0.264565,0.966643
838,1050,3.31838,-0.0139873,0.26497,0.966314
847,1041,3.32009,-0.011921,0.262825,0.965393
856,1032,3.3193,-0.0126984,0.26362,0.964779
865,1023,3.31847,-0.014078,0.264031,0.963873
874,1014,3.32033,-0.0111909,0.26226,0.963567
883,1005,3.3195,-0.0125458,0.262748,0.962652
892,996,3.31841,-0.0141307,0.263495,0.961452
901,987,3.32052,-0.0112266,0.26209,0.961141
910,978,3.31944,-0.0126804,0.262128,0.960177
919,969,3.31887,-0.0140726,0.262537,0.959247
928,960,3.31811,-0.0147552,0.262537,0.958917
937,951,3.31932,-0.0127093,0.261575,0.957737
946,942,3.31894,-0.0134065,0.261573,0.957356
955,933,3.31799,-0.0148635,0.261994,0.956433
964,924,3.31969,-0.0126916,0.260619,0.955528
973,915,3.31848,-0.0135261,0.261026,0.954858
982,906,3.32027,-0.0113866,0.25967,0.953984
991,897,3.31946,-0.0127564,0.260072,0.953054
1000,888,3.31885,-0.0142499,0.260177,0.952067
1009,879,3.31929,-0.0123134,0.259947,0.950644
1018,870,3.31961,-0.0128502,0.259527,0.950571
1027,861,3.31865,-0.0143075,0.25994,0.949613
1036,852,3.32044,-0.0122378,0.258559,0.948629
1045,843,3.31886,-0.0137829,0.259399,0.947458
1054,834,3.31847,-0.0150704,0.259398,0.946805
1063,825,3.31912,-0.0129703,0.258442,0.945645
1072,816,3.3183,-0.0144337,0.258858,0.944712
1081,807,3.31922,-0.0125709,0.257892,0.943385
1090,798,3.31907,-0.0137447,0.257892,0.942811
1099,789,3.31822,-0.0151554,0.258305,0.941884
1108,780,3.31991,-0.0131235,0.256917,0.940845
1117,771,3.31823,-0.0147346,0.257757,0.939637
1126,762,3.31922,-0.0125802,0.256792,0.93846
1135,753,3.31886,-0.013953,0.256788,0.937757
1144,744,3.31964,-0.0119066,0.255821,0.936532
1153,735,3.31823,-0.0141019,0.256664,0.935023
1162,726,3.31708,-0.0155213,0.257087,0.934114
1171,717,3.31885,-0.0133818,0.255695,0.933139
1180,708,3.31752,-0.0157207,0.256546,0.931561
1189,699,3.31877,-0.0134269,0.255145,0.930627
1198,690,3.3176,-0.0137584,0.255145,0.929483
1207,681,3.31806,-0.0117014,0.254592,0.927774
1216,672,3.31676,-0.0192499,0.254581,0.926441
1225,663,3.3179,-0.0142702,0.253368,0.924369
1234,654,3.31883,-0.0129168,0.252215,0.922791
1243,645,3.31797,-0.0187231,0.251786,0.921309
1252,636,3.31861,-0.0165631,0.250809,0.920101
1261,627,3.31743,-0.0168655,0.250809,0.918724
1270,618,3.31855,-0.013597,0.249409,0.91702
1279,609,3.31677,-0.0159489,0.25025,0.915469
1288,600,3.31761,-0.0198805,0.24884,0.913893
1297,591,3.31846,-0.014821,0.247442,0.911819
1306,582,3.31777,-0.0132177,0.247015,0.910317
1315,573,3.31802,-0.011874,0.24645,0.908487
1324,564,3.31717,-0.0196352,0.246024,0.907332
1333,555,3.31798,-0.0164201,0.245035,0.905387
1342,546,3.31886,-0.0130224,0.24363,0.903715
1351,537,3.31718,-0.0217289,0.24405,0.901745
1360,528,3.31745,-0.0184859,0.243061,0.899798
1369,519,3.31827,-0.0169369,0.242053,0.898237
1378,510,3.317,-0.0142722,0.241642,0.896009
1387,501,3.31704,-0.0211755,0.241065,0.893909
1396,492,3.31793,-0.0176928,0.239882,0.892223
1405,483,3.31839,-0.0131956,0.238235,0.889814
1414,474,3.31661,-0.0144443,0.238657,0.886308
1423,465,3.31739,-0.0185809,0.237238,0.886177
1432,456,3.31672,-0.0180965,0.237076,0.883754
1441,447,3.31798,-0.0133462,0.235254,0.881671
1450,438,3.31799,-0.0107389,0.234664,0.879167
1459,429,3.31533,-0.0216243,0.235488,0.87732
1468,420,3.31597,-0.0169329,0.234075,0.874977
1477,411,3.3168,-0.0130048,0.232651,0.872233
1486,402,3.31586,-0.0202708,0.232474,0.869869
1495,393,3.31707,-0.0154758,0.230637,0.867735
1504,384,3.3174,-0.0128147,0.229625,0.865465
1513,375,3.31445,-0.0227932,0.230445,0.86289
1522,366,3.31464,-0.0200724,0.229437,0.860632
1531,357,3.31516,-0.0161046,0.228013,0.85793
1540,348,3.31506,-0.0213274,0.226985,0.855649
1549,339,3.31544,-0.0187044,0.225967,0.853329
1558,330,3.31514,-0.0167444,0.22536,0.850497
1567,321,3.31556,-0.0118374,0.223915,0.848131
1576,312,3.31532,-0.0200622,0.223507,0.845425
1585,303,3.31543,-0.0172853,0.222276,0.843371
1594,294,3.31487,-0.015337,0.221672,0.840544
1603,285,3.31326,-0.0152321,0.221665,0.838107
1612,276,3.31243,-0.0216597,0.221053,0.835226
1621,267,3.313,-0.0187284,0.2196,0.833223
1630,258,3.31282,-0.0146375,0.218562,0.830223
1639,249,3.31247,-0.0230755,0.217941,0.827766
1648,240,3.31262,-0.020152,0.216901,0.825524
1657,231,3.31231,-0.0182603,0.216269,0.822632
1666,222,3.31261,-0.0224403,0.214812,0.819925
1675,213,3.31213,-0.0205374,0.214183,0.817051
1684,204,3.31269,-0.0154352,0.212717,0.814657
1693,195,3.31273,-0.0133398,0.211666,0.812053
1702,186,3.31267,-0.0198256,0.210614,0.809461
1711,177,3.31296,-0.0178039,0.209961,0.806814
1720,168,3.31222,-0.0156574,0.208917,0.80375
1729,159,3.31232,-0.0222393,0.207876,0.801397
1738,150,3.31241,-0.0201488,0.206788,0.798786
1747,141,3.31299,-0.0149426,0.205316,0.79639
1756,132,3.31303,-0.0127715,0.204248,0.793793
1765,123,3.3132,-0.0193764,0.203169,0.791172
1774,114,3.31349,-0.0165083,0.202102,0.788855
1783,105,3.31308,-0.0143171,0.201437,0.786029
1792,96,3.31058,-0.0255788,0.201829,0.783647
1801,87,3.31055,-0.0233518,0.200758,0.781091
1810,78,3.31064,-0.0203541,0.199674,0.779039
1819,69,3.31143,-0.0182131,0.198732,0.776145
1828,60,3.31148,-0.0250553,0.197504,0.773586
1837,51,3.31197,-0.0229118,0.196421,0.770964
1846,42,3.31265,-0.0196176,0.194919,0.768964
1855,33,3.31313,-0.0174607,0.193828,0.766338
1864,24,3.31341,-0.0244599,0.192725,0.763733
1873,15,3.31388,-0.022186,0.19163,0.761155
1882,6,3.31377,-0.0214987,0.190814,0.758951
1885,3,3.31361,-0.0200187,0.190525,0.758497

File: HUST_8-5_cycle_feature_matrix.csv
cycle_number,rul,voltage,current,capacity,charge_capacity
1,1350,3.30959,-0.00828898,0.343781,1.02728
8,1343,3.29858,-0.0104163,0.349026,1.02152
15,1336,3.3003,-0.00861363,0.347459,1.02079
22,1329,3.30024,-0.00976175,0.347455,1.0201
29,1322,3.30176,-0.00809715,0.346336,1.01908
36,1315,3.30208,-0.00860969,0.34587,1.01895
43,1308,3.3015,-0.00926429,0.346303,1.01829
50,1301,3.30158,-0.00996941,0.345839,1.01798
57,1294,3.30263,-0.00812627,0.345196,1.01694
64,1287,3.30274,-0.00874956,0.345184,1.01652
71,1280,3.30231,-0.00946538,0.345186,1.0161
78,1273,3.30207,-0.00990307,0.345188,1.01583
85,1266,3.30175,-0.0105063,0.345181,1.01542
92,1259,3.30312,-0.00816604,0.344084,1.01486
99,1252,3.30297,-0.00876627,0.344098,1.01428
106,1245,3.30303,-0.00927621,0.344084,1.01418
113,1238,3.30292,-0.00992205,0.344088,1.01379
120,1231,3.30276,-0.0104843,0.344096,1.01345
127,1224,3.30378,-0.00822505,0.343446,1.01266
134,1217,3.30419,-0.008714,0.342992,1.01251
141,1210,3.30392,-0.00928917,0.343008,1.0122
148,1203,3.30363,-0.00994231,0.343455,1.01162
155,1196,3.30355,-0.00985783,0.343002,1.01183
162,1189,3.30272,-0.0104687,0.343471,1.01133
169,1182,3.30413,-0.00816724,0.342377,1.01073
176,1175,3.30437,-0.00876286,0.342375,1.01038
183,1168,3.30404,-0.00871364,0.342373,1.01041
190,1161,3.30423,-0.00938244,0.342313,1.00995
197,1154,3.30423,-0.00993488,0.342363,1.00961
204,1147,3.30383,-0.00992861,0.342365,1.00963
211,1140,3.30346,-0.0104857,0.342469,1.00927
218,1133,3.30575,-0.00757659,0.340808,1.0092
225,1126,3.30543,-0.00814261,0.341236,1.00886
232,1119,3.30495,-0.0080989,0.341652,1.00836
239,1112,3.3051,-0.00825298,0.341211,1.00849
246,1105,3.30488,-0.00879676,0.34121,1.00811
253,1098,3.30446,-0.0094518,0.341215,1.00772
260,1091,3.30481,-0.00994187,0.340772,1.00761
267,1084,3.30479,-0.010049,0.340755,1.0075
274,1077,3.30436,-0.0105902,0.340758,1.00717
281,1070,3.30599,-0.00822895,0.339687,1.00668
288,1063,3.30571,-0.00825305,0.339673,1.00663
295,1056,3.30559,-0.00882185,0.339665,1.00625
302,1049,3.30604,-0.00929863,0.339225,1.00616
309,1042,3.30603,-0.00990328,0.339233,1.00577
316,1035,3.30566,-0.00986905,0.339214,1.00577
323,1028,3.3053,-0.0104874,0.339238,1.00542
330,1021,3.30705,-0.00820898,0.338152,1.00484
337,1014,3.3072,-0.00874954,0.338138,1.00448
344,1007,3.30709,-0.00940061,0.338147,1.00405
351,1000,3.30711,-0.009298,0.337699,1.0043
358,993,3.30614,-0.00995808,0.338151,1.00374
365,986,3.30613,-0.0106035,0.338154,1.00331
372,979,3.30799,-0.00815701,0.337058,1.00284
379,972,3.30774,-0.00878056,0.337063,1.00244
386,965,3.30718,-0.00878899,0.337061,1.00243
393,958,3.30718,-0.00995035,0.337138,1.0017
400,951,3.30711,-0.0105696,0.337072,1.00133
407,944,3.30862,-0.00763881,0.335983,1.00114
414,937,3.30847,-0.00825933,0.335986,1.00075
421,930,3.30789,-0.00878168,0.335999,1.00046
428,923,3.30766,-0.00941036,0.335972,0.99998
435,916,3.30776,-0.0100103,0.335975,0.999342
442,909,3.30754,-0.010545,0.335969,0.999247
449,902,3.30883,-0.00820278,0.334501,0.998651
456,895,3.30804,-0.0088605,0.335316,0.998071
463,888,3.30822,-0.00942811,0.334878,0.997873
470,881,3.30825,-0.00992383,0.334879,0.997553
477,874,3.3079,-0.0105847,0.334873,0.997114
484,867,3.30918,-0.0088262,0.334245,0.996054
491,860,3.30884,-0.00938191,0.334241,0.995694
498,853,3.30893,-0.00945152,0.33378,0.995763
505,846,3.30845,-0.0106387,0.33423,0.994838
512,839,3.30987,-0.00818741,0.333157,0.994383
519,832,3.3094,-0.00881012,0.333143,0.993947
526,825,3.30902,-0.00942352,0.333148,0.993566
533,818,3.30864,-0.0107007,0.333626,0.992663
540,811,3.31081,-0.0082086,0.332096,0.99234
547,804,3.31029,-0.00883197,0.332091,0.991941
554,797,3.30946,-0.0100186,0.332545,0.99103
561,790,3.30889,-0.0105948,0.332644,0.990659
568,783,3.31055,-0.00826073,0.331461,0.99007
575,776,3.31055,-0.00932908,0.331467,0.989404
582,769,3.30957,-0.0101164,0.331958,0.988743
589,762,3.30909,-0.010692,0.331906,0.988348
596,755,3.31023,-0.00891648,0.331267,0.987226
603,748,3.30988,-0.00944588,0.331258,0.986872
610,741,3.30949,-0.0107726,0.33126,0.98601
617,734,3.31094,-0.00829594,0.330174,0.985501
624,727,3.31063,-0.00894111,0.330173,0.985081
631,720,3.30996,-0.0100975,0.330617,0.984182
638,713,3.31123,-0.00827781,0.329534,0.983235
645,706,3.31012,-0.00957243,0.330431,0.982119
652,699,3.30974,-0.0108265,0.330439,0.981325
659,692,3.31106,-0.00892671,0.329355,0.980449
666,685,3.31055,-0.00950936,0.329356,0.980064
673,678,3.30989,-0.0107611,0.329789,0.979062
680,671,3.3106,-0.00901718,0.329157,0.977936
687,664,3.31016,-0.0102507,0.329252,0.977137
694,657,3.31158,-0.00785514,0.328077,0.976554
701,650,3.31043,-0.0099424,0.32897,0.974893
708,643,3.3094,-0.0106262,0.328976,0.974459
715,636,3.3106,-0.00896296,0.328333,0.973245
722,629,3.30994,-0.0103006,0.328804,0.972377
729,622,3.31137,-0.00842423,0.327241,0.971432
736,615,3.31044,-0.00974517,0.327683,0.97039
743,608,3.31136,-0.00854624,0.327059,0.968905
750,601,3.3108,-0.00970251,0.327068,0.968168
757,594,3.31187,-0.00640045,0.325961,0.966811
764,587,3.31081,-0.0143388,0.32642,0.965535
771,580,3.31221,-0.0108551,0.324884,0.964497
778,573,3.31124,-0.00979746,0.3249,0.962637
785,566,3.31285,-0.00630227,0.323356,0.961576
792,559,3.311,-0.014434,0.324258,0.960015
799,552,3.3123,-0.0063807,0.323181,0.959083
806,545,3.31167,-0.00981804,0.322623,0.95726
813,538,3.31217,-0.00710481,0.321656,0.955447
820,531,3.31118,-0.0143942,0.321638,0.953235
827,524,3.31263,-0.010035,0.31967,0.953043
834,517,3.31156,-0.0104147,0.320108,0.951354
841,510,3.31283,-0.00696986,0.318581,0.950267
848,503,3.31132,-0.014962,0.319027,0.948954
855,496,3.31233,-0.0122213,0.317949,0.947265
862,489,3.31325,-0.00797097,0.316884,0.945281
869,482,3.31259,-0.00820638,0.316437,0.94396
876,475,3.31264,-0.0116542,0.315803,0.942144
883,468,3.31214,-0.0118372,0.315336,0.940801
890,461,3.31252,-0.00919634,0.31474,0.938991
897,454,3.31324,-0.00647645,0.313659,0.937259
904,447,3.31199,-0.0145373,0.314093,0.935924
911,440,3.31226,-0.0109075,0.313464,0.933353
918,433,3.31352,-0.00639468,0.311516,0.93177
925,426,3.31168,-0.013583,0.311965,0.929763
932,419,3.31259,-0.0108632,0.310893,0.928034
939,412,3.31305,-0.00706015,0.309835,0.92571
946,405,3.31153,-0.0151579,0.310264,0.924415
953,398,3.31192,-0.0114626,0.309196,0.921995
960,391,3.31286,-0.00770806,0.307708,0.919794
967,384,3.31347,-0.0110519,0.30663,0.918174
974,377,3.31182,-0.0121997,0.30706,0.915994
981,370,3.31244,-0.00939295,0.30599,0.914295
988,363,3.3129,-0.0124188,0.304931,0.9116
995,356,3.3137,-0.00808252,0.303432,0.909696
1002,349,3.31186,-0.0106497,0.304288,0.907808
1009,342,3.31251,-0.0131464,0.302808,0.905599
1016,335,3.31284,-0.00932811,0.301751,0.903255
1023,328,3.31305,-0.00717706,0.301119,0.900977
1030,321,3.31329,-0.0119132,0.30044,0.898421
1037,314,3.31354,-0.00812964,0.299459,0.896037
1044,307,3.31211,-0.00904622,0.299448,0.894149
1051,300,3.31204,-0.0132941,0.298821,0.891895
1058,293,3.3125,-0.0100058,0.297768,0.889168
1065,286,3.31245,-0.00780995,0.297147,0.887198
1072,279,3.3124,-0.0126255,0.296531,0.884369
1079,272,3.31243,-0.00880506,0.295486,0.88195
1086,265,3.31263,-0.0119409,0.294443,0.879251
1093,258,3.31261,-0.00718759,0.293391,0.876069
1100,251,3.3127,-0.0130368,0.29277,0.874191
1107,244,3.3126,-0.00986128,0.292154,0.871223
1114,237,3.31316,-0.00655885,0.290694,0.868655
1121,230,3.31276,-0.00980407,0.290067,0.865964
1128,223,3.31054,-0.0131381,0.290922,0.863434
1135,216,3.30968,-0.0164591,0.290319,0.860534
1142,209,3.31028,-0.0115374,0.288849,0.857553
1149,202,3.31007,-0.0148238,0.287803,0.854747
1156,195,3.3096,-0.0133154,0.287614,0.85196
1163,188,3.30967,-0.00999926,0.286569,0.849146
1170,181,3.30927,-0.0143746,0.285953,0.846905
1177,174,3.30981,-0.0093247,0.28479,0.843917
1184,167,3.30982,-0.0132601,0.283887,0.840769
1191,160,3.31128,-0.0083902,0.28232,0.837846
1198,153,3.31098,-0.0117499,0.281194,0.835011
1205,146,3.30902,-0.0116664,0.281175,0.832383
1212,139,3.31084,-0.0134225,0.279546,0.829612
1219,132,3.31063,-0.0101231,0.278591,0.826772
1226,125,3.31019,-0.00677281,0.2779,0.82364
1233,118,3.310302,-0.011752,0.276864,0.821365
1240,111,3.31033,-0.0067168,0.275418,0.81834
1247,104,3.30927,-0.0109075,0.275684,0.814833
1254,97,3.3096,-0.0142038,0.27379,0.812205
1261,90,3.30909,-0.0125582,0.273186,0.80959
1268,83,3.30887,-0.00756,0.272259,0.806388
1275,76,3.30903,-0.0124878,0.271169,0.804085
1282,69,3.3085,-0.0109404,0.270566,0.801402
1289,62,3.30869,-0.012698,0.26893,0.798341
1296,55,3.30884,-0.00746486,0.267695,0.795348
1303,48,3.30806,-0.012647,0.2671,0.792758
1310,41,3.30862,-0.00915327,0.265664,0.790102
1317,34,3.30809,-0.00756054,0.265077,0.787455
1324,27,3.30784,-0.0092357,0.263673,0.784492
1331,20,3.30748,-0.0143751,0.262648,0.782048
1338,13,3.30716,-0.00845856,0.26123,0.779362
1345,6,3.30672,-0.0120354,0.260244,0.776524
1348,3,3.30551,-0.0134954,0.260251,0.775761