Folder: MyBatteryML/hust_correlation_analysis/matrices (part 14)

File: HUST_4-4_cycle_feature_matrix.csv
cycle_number,rul,voltage,current,capacity,charge_capacity
1,1493,3.31516,-0.0076925,0.317822,1.02201
8,1486,3.30247,-0.00963818,0.322718,1.01629
15,1479,3.30243,-0.0114275,0.322697,1.01521
22,1472,3.30438,-0.00961114,0.321091,1.01451
29,1465,3.30375,-0.010877,0.321066,1.0137
36,1458,3.30358,-0.0121208,0.321055,1.01293
43,1451,3.30544,-0.00975209,0.319441,1.01249
50,1444,3.30536,-0.0102834,0.31943,1.01216
57,1437,3.30487,-0.0115425,0.319425,1.01139
64,1430,3.30437,-0.0121582,0.31941,1.01097
71,1423,3.30577,-0.00978423,0.318236,1.01039
78,1416,3.30545,-0.0109482,0.31862,1.00957
85,1409,3.30522,-0.0110172,0.318676,1.00949
92,1402,3.30501,-0.0115998,0.318662,1.00912
99,1395,3.30675,-0.00969362,0.317519,1.00831
106,1388,3.30672,-0.0103559,0.318117,1.00788
113,1381,3.30654,-0.0109376,0.317507,1.00752
120,1374,3.306,-0.0116281,0.317951,1.00698
127,1367,3.30587,-0.0121849,0.317957,1.00666
134,1360,3.30738,-0.00976135,0.316779,1.00606
141,1353,3.30704,-0.00983484,0.31678,1.00604
148,1346,3.30681,-0.0104036,0.316794,1.00574
155,1339,3.30658,-0.0109494,0.316289,1.00539
162,1332,3.30615,-0.0115843,0.317227,1.00509
169,1325,3.30618,-0.012164,0.317248,1.00457
176,1318,3.30785,-0.00974073,0.316069,1.00396
183,1311,3.3077,-0.00975651,0.316067,1.00397
190,1304,3.30748,-0.0103422,0.316068,1.00361
197,1297,3.30749,-0.0110348,0.316056,1.00176
204,1290,3.30734,-0.0116177,0.316063,1.00283
211,1283,3.307,-0.0116301,0.316065,1.00281
218,1276,3.30698,-0.0121706,0.316061,1.0025
225,1269,3.30814,-0.00988834,0.315325,1.00167
232,1262,3.30753,-0.00994419,0.315296,1.00153
239,1255,3.30729,-0.00986419,0.315266,1.0015
246,1248,3.30707,-0.01056,0.315274,1.00111
253,1241,3.30723,-0.0111213,0.315268,1.00076
260,1234,3.30689,-0.0111827,0.315277,1.00073
267,1227,3.30683,-0.0117248,0.315289,1.00046
274,1220,3.30677,-0.0123621,0.315282,1.00004
281,1213,3.3086,-0.0099098,0.314109,0.99949
288,1206,3.30864,-0.0104719,0.314126,0.9992
295,1199,3.30824,-0.0104881,0.314119,0.999164
302,1192,3.30814,-0.0111833,0.31411,0.998705
309,1185,3.30829,-0.0117389,0.314128,0.998429
316,1178,3.30803,-0.0116385,0.314129,0.998507
323,1171,3.30771,-0.0122337,0.314118,0.99811
330,1164,3.30879,-0.00996176,0.313396,0.997312
337,1157,3.30896,-0.0104875,0.313403,0.997043
344,1150,3.3089,-0.0104407,0.312968,0.997207
351,1143,3.3082,-0.0111568,0.31339,0.99658
358,1136,3.3081,-0.0117346,0.313409,0.996299
365,1129,3.30794,-0.0123473,0.313412,0.995913
372,1122,3.30925,-0.00990219,0.312667,0.995154
379,1115,3.30915,-0.0099555,0.312755,0.995163
386,1108,3.30904,-0.0104383,0.312685,0.99488
393,1101,3.30892,-0.0110414,0.312552,0.99449
400,1094,3.30826,-0.0118243,0.313094,0.993819
407,1087,3.30841,-0.0123688,0.313129,0.993595
414,1080,3.31009,-0.00982829,0.312043,0.993101
421,1073,3.31026,-0.00979482,0.311531,0.99326
428,1066,3.31011,-0.0104085,0.312134,0.992901
435,1059,3.3095,-0.011059,0.312506,0.992394
442,1052,3.30916,-0.0117673,0.311951,0.991864
449,1045,3.30939,-0.0117141,0.311506,0.992054
456,1038,3.30875,-0.0123383,0.311941,0.991524
463,1031,3.31045,-0.00996668,0.310775,0.99089
470,1024,3.31019,-0.0104941,0.310757,0.990541
477,1017,3.30964,-0.0111984,0.311209,0.989979
484,1010,3.3096,-0.0117376,0.311213,0.989681
491,1003,3.30937,-0.0123929,0.311206,0.989262
498,996,3.31077,-0.00941768,0.310047,0.989018
505,989,3.31081,-0.0105085,0.310056,0.988377
512,982,3.31008,-0.0105926,0.31004,0.988284
519,975,3.30934,-0.0112862,0.310453,0.987651
526,968,3.30943,-0.0118377,0.31048,0.987412
533,961,3.31066,-0.00933696,0.30932,0.98686
540,954,3.3102,-0.0102016,0.309739,0.986391
547,947,3.3097,-0.0113466,0.310196,0.985315
554,940,3.30956,-0.0117877,0.310814,0.9851
561,933,3.30886,-0.0125234,0.310655,0.984513
568,926,3.31045,-0.0100024,0.309485,0.98397
575,919,3.31044,-0.0106077,0.309481,0.983616
582,912,3.3101,-0.0118094,0.309496,0.982915
589,905,3.30991,-0.0123553,0.309566,0.982578
596,898,3.3109,-0.010024,0.308766,0.981778
603,891,3.31066,-0.0105924,0.308756,0.981406
610,884,3.31029,-0.0113015,0.308757,0.98098
617,877,3.31005,-0.0118601,0.308741,0.980602
624,870,3.31136,-0.0100728,0.30802,0.979467
631,863,3.31111,-0.0106417,0.308013,0.979108
638,856,3.31061,-0.0112521,0.308006,0.978713
645,849,3.31004,-0.0120493,0.308442,0.978074
652,842,3.31168,-0.00998741,0.307284,0.977254
659,835,3.3107,-0.0108208,0.307653,0.976608
666,828,3.31004,-0.0113763,0.307711,0.976241
673,821,3.30948,-0.012641,0.308173,0.975373
680,814,3.31074,-0.0107875,0.307443,0.974247
687,807,3.31007,-0.0113699,0.307428,0.973856
694,800,3.30911,-0.0121277,0.307854,0.973201
701,793,3.31089,-0.010182,0.306679,0.972248
708,786,3.31056,-0.0107775,0.306686,0.971942
715,779,3.30986,-0.0120734,0.307117,0.970989
722,772,3.31142,-0.0101919,0.305963,0.970046
729,765,3.31114,-0.0107755,0.305967,0.969725
736,758,3.31043,-0.0120827,0.306398,0.968752
743,751,3.31131,-0.0102187,0.305652,0.967563
750,744,3.31109,-0.0108928,0.305663,0.967189
757,737,3.31034,-0.0121659,0.306099,0.966252
764,730,3.3096,-0.0128326,0.306075,0.965778
771,723,3.31088,-0.0109256,0.305371,0.964733
778,716,3.31031,-0.0121742,0.30537,0.963975
785,709,3.31155,-0.00964566,0.304177,0.963332
792,702,3.31062,-0.0109598,0.304614,0.962384
799,695,3.30995,-0.0122939,0.305084,0.961492
806,688,3.31088,-0.0103354,0.304351,0.960367
813,681,3.31016,-0.0116936,0.304789,0.959651
820,674,3.30926,-0.0129857,0.30525,0.95848
827,667,3.31064,-0.0110459,0.304526,0.957387
834,660,3.3101,-0.012277,0.304516,0.956629
841,653,3.3115,-0.0103291,0.303336,0.955663
848,646,3.31055,-0.011794,0.303793,0.954646
855,639,3.30962,-0.013048,0.304238,0.953746
862,632,3.31098,-0.011078,0.303049,0.952746
869,625,3.309936,-0.0123492,0.303475,0.951761
876,618,3.31083,-0.0105046,0.302765,0.950635
883,611,3.30975,-0.0118955,0.303217,0.949647
890,604,3.30887,-0.0131629,0.303209,0.948885
897,597,3.31002,-0.0112645,0.302491,0.947731
904,590,3.30849,-0.0132854,0.303403,0.946218
911,583,3.30952,-0.0113028,0.302664,0.945084
918,576,3.3086,-0.0133193,0.303116,0.943719
925,569,3.31014,-0.0112832,0.301944,0.942824
932,562,3.30922,-0.0132773,0.302399,0.941484
939,555,3.31002,-0.0114212,0.301668,0.940253
946,548,3.30878,-0.0183392,0.301542,0.938788
953,541,3.30952,-0.0163831,0.301048,0.937662
960,534,3.31091,-0.0116801,0.299298,0.935909
967,527,3.30941,-0.0120929,0.29976,0.934262
974,520,3.31039,-0.0157702,0.298583,0.932645
981,513,3.30948,-0.0161031,0.298591,0.931226
988,506,3.31076,-0.01239,0.296948,0.930092
995,499,3.30966,-0.0127072,0.296938,0.928604
1002,492,3.31042,-0.00973277,0.296227,0.926827
1009,485,3.31106,-0.0133447,0.295046,0.925211
1016,478,3.30992,-0.0137392,0.295027,0.923651
1023,471,3.31121,-0.00907855,0.293389,0.921811
1030,464,3.30982,-0.0178231,0.293842,0.92051
1037,457,3.31026,-0.0148552,0.293113,0.918663
1044,450,3.3113,-0.0101687,0.291473,0.916795
1051,443,3.30997,-0.0172684,0.291461,0.915309
1058,436,3.3108,-0.0148996,0.290774,0.913221
1065,429,3.30957,-0.0152156,0.290754,0.911722
1072,422,3.31058,-0.0105101,0.289126,0.90988
1079,415,3.311,-0.016633,0.288908,0.907841
1086,408,3.30928,-0.0152834,0.288857,0.906081
1093,401,3.31009,-0.0122742,0.28768,0.904386
1100,394,3.31054,-0.0099169,0.28695,0.90216
1107,387,3.31086,-0.0153891,0.286229,0.900639
1114,380,3.30949,-0.0147263,0.286227,0.898479
1121,373,3.3102,-0.0116098,0.285055,0.896838
1128,366,3.31003,-0.0094127,0.284782,0.894374
1135,359,3.30903,-0.0164969,0.28433,0.893157
1142,352,3.30938,-0.0141126,0.28361,0.890953
1149,345,3.31023,-0.011047,0.282447,0.88929
1156,338,3.30824,-0.0190182,0.282883,0.887282
1163,331,3.3093,-0.0165979,0.281837,0.885246
1170,324,3.30987,-0.0124753,0.280557,0.882881
1177,317,3.31056,-0.0162578,0.279375,0.88124
1184,310,3.3088,-0.0173156,0.279816,0.879219
1191,303,3.30971,-0.0131335,0.278655,0.87688
1198,296,3.30971,-0.0177923,0.277933,0.874652
1205,289,3.31043,-0.0146205,0.276761,0.872967
1212,282,3.3109,-0.0104059,0.275588,0.8706
1219,275,3.30876,-0.0186593,0.276018,0.868497
1226,268,3.30978,-0.0143053,0.274412,0.866364
1233,261,3.31022,-0.01018,0.273241,0.863913
1240,254,3.31073,-0.0164823,0.272509,0.862059
1247,247,3.31084,-0.0130334,0.271796,0.859142
1254,240,3.3088,-0.0141224,0.272356,0.857114
1261,233,3.3092,-0.0186955,0.271166,0.855049
1268,226,3.30952,-0.0144608,0.269879,0.852636
1275,219,3.31009,-0.0102259,0.268731,0.850265
1282,212,3.3097,-0.0166773,0.268436,0.848246
1289,205,3.30968,-0.0132407,0.267695,0.845189
1296,198,3.30828,-0.0124236,0.267253,0.84321
1303,191,3.30845,-0.0171207,0.266527,0.841039
1310,184,3.30871,-0.0153375,0.265804,0.838428
1317,177,3.30907,-0.0110438,0.264641,0.836025
1324,170,3.30901,-0.0157839,0.264522,0.83383
1331,163,3.30901,-0.0122437,0.26321,0.830898
1338,156,3.30918,-0.00973876,0.263095,0.828678
1345,149,3.30889,-0.0170852,0.262208,0.826278
1352,142,3.3093,-0.0127048,0.261045,0.823864
1359,135,3.30982,-0.00897206,0.25989,0.821148
1366,128,3.30759,-0.0181427,0.26033,0.818824
1373,121,3.30793,-0.013782,0.259168,0.816396
1380,114,3.30764,-0.0119987,0.25888,0.813616
1387,107,3.308,-0.0168708,0.257729,0.811594
1394,100,3.30784,-0.0132357,0.257013,0.80864
1401,93,3.30813,-0.0113888,0.256289,0.806044
1408,86,3.30797,-0.0162979,0.255559,0.803802
1415,79,3.30828,-0.0144947,0.254844,0.80121
1422,72,3.30825,-0.0181899,0.253684,0.798513
1429,65,3.30831,-0.0157713,0.253549,0.796158
1436,58,3.30857,-0.011895,0.251784,0.793656
1443,51,3.308672,-0.00936617,0.251073,0.791141
1450,44,3.30882,-0.0150953,0.250363,0.788616
1457,37,3.30678,-0.0150179,0.25035,0.786026
1464,30,3.30689,-0.0124035,0.249624,0.783775
1471,23,3.30679,-0.0181718,0.248899,0.781461
1478,16,3.30667,-0.0164349,0.248635,0.778442
1485,9,3.30761,-0.0115997,0.247037,0.776302
1491,3,3.30738,-0.0188227,0.246752,0.774177

File: HUST_4-5_cycle_feature_matrix.csv
cycle_number,rul,voltage,current,capacity,charge_capacity
1,1563,3.31808,-0.00729108,0.312775,1.03813
9,1555,3.30788,-0.00731039,0.31683,1.03148
17,1547,3.30694,-0.00972857,0.316659,1.02988
25,1539,3.30874,-0.00853504,0.315153,1.02881
33,1531,3.30825,-0.00985626,0.31564,1.02807
41,1523,3.30947,-0.00751744,0.31384,1.02746
49,1515,3.31013,-0.00575466,0.313114,1.02653
57,1507,3.30883,-0.00984476,0.313832,1.02606
65,1499,3.31037,-0.0104868,0.312842,1.02545
73,1491,3.30958,-0.0117602,0.313267,1.02452
81,1483,3.30977,-0.0128487,0.313257,1.02387
89,1475,3.3092,-0.01345,0.313263,1.02352
97,1467,3.31083,-0.0111077,0.312075,1.02321
105,1459,3.31095,-0.0123331,0.312015,1.02203
113,1451,3.31003,-0.0128958,0.312485,1.02168
121,1443,3.30958,-0.0134967,0.312486,1.02132
129,1435,3.31073,-0.0111661,0.311715,1.02055
137,1427,3.31046,-0.0118137,0.311723,1.02019
145,1419,3.31035,-0.0122797,0.311711,1.01989
153,1411,3.31026,-0.0128209,0.311139,1.01957
161,1403,3.31183,-0.0104699,0.310515,1.01898
169,1395,3.31122,-0.00814281,0.310739,1.01843
177,1387,3.31112,-0.00866295,0.310734,1.01811
185,1379,3.31061,-0.00928064,0.310655,1.01776
193,1371,3.30978,-0.0100624,0.311279,1.01711
201,1363,3.31077,-0.013532,0.310895,1.01683
209,1355,3.31154,-0.00814424,0.309963,1.01627
217,1347,3.31087,-0.0088158,0.310381,1.01569
225,1339,3.31146,-0.0124105,0.310122,1.01531
233,1331,3.31025,-0.00941766,0.310385,1.01532
241,1323,3.30996,-0.0133011,0.310007,1.01476
249,1315,3.31007,-0.0137037,0.310822,1.01451
257,1307,3.31069,-0.0143342,0.310116,1.01414
265,1299,3.31153,-0.0118574,0.309395,1.0122
273,1291,3.31209,-0.0124566,0.308924,1.01327
281,1283,3.31091,-0.0131102,0.309812,1.01267
289,1275,3.31066,-0.0136475,0.309816,1.01238
297,1267,3.31211,-0.0106739,0.308614,1.01213
305,1259,3.31144,-0.0114381,0.309044,1.01151
313,1251,3.31189,-0.0117997,0.309213,1.01148
321,1243,3.31104,-0.0125204,0.309048,1.01089
329,1235,3.3107,-0.0131433,0.309049,1.01051
337,1227,3.31228,-0.0112564,0.308278,1.00945
345,1219,3.31186,-0.0113142,0.308269,1.0094
353,1211,3.31168,-0.0119838,0.308868,1.00902
361,1203,3.31159,-0.0124715,0.30827,1.00873
369,1195,3.31065,-0.0131825,0.308702,1.00815
377,1187,3.31196,-0.00767121,0.307753,1.00761
385,1179,3.31251,-0.0112562,0.307501,1.00725
393,1171,3.31212,-0.0118926,0.307496,1.00687
401,1163,3.31284,-0.00703571,0.306981,1.00579
409,1155,3.31244,-0.00759445,0.306977,1.00545
417,1147,3.31306,-0.00819858,0.306506,1.00509
425,1139,3.31232,-0.00892046,0.306934,1.0045
433,1131,3.31326,-0.00638882,0.3062,1.00396
441,1123,3.31267,-0.00647096,0.306208,1.00394
449,1115,3.3113,-0.0101564,0.306934,1.00378
457,1107,3.31227,-0.00770491,0.306204,1.0032
465,1099,3.31149,-0.014421,0.30668,1.00303
473,1091,3.31103,-0.0150648,0.307111,1.0025
481,1083,3.31208,-0.0126271,0.306374,1.00215
489,1075,3.31178,-0.0132156,0.306375,1.00154
497,1067,3.31282,-0.00837672,0.305377,1.00041
505,1059,3.3127,-0.00896841,0.305379,1.00006
513,1051,3.31234,-0.0127089,0.305597,0.999626
521,1043,3.31241,-0.0132324,0.305602,0.999344
529,1035,3.31293,-0.00771407,0.304651,0.998765
537,1027,3.31276,-0.00823152,0.304644,0.998452
545,1019,3.31293,-0.00893203,0.304608,0.9979
553,1011,3.31243,-0.0101248,0.305037,0.997039
561,1003,3.31353,-0.00775769,0.304265,0.996225
569,995,3.31307,-0.00838393,0.304261,0.995845
577,987,3.31294,-0.00890319,0.304263,0.995565
585,979,3.31265,-0.00961866,0.304274,0.995158
593,971,3.31377,-0.00778769,0.303725,0.994044
601,963,3.31339,-0.00838245,0.303496,0.993669
609,955,3.31306,-0.00900961,0.303502,0.993308
617,947,3.31282,-0.00964834,0.303502,0.992933
625,939,3.31379,-0.00789389,0.302727,0.99174
633,931,3.31351,-0.00845332,0.302725,0.991398
641,923,3.31267,-0.00911256,0.303229,0.99084
649,915,3.31188,-0.0103986,0.304168,0.9899
657,907,3.31378,-0.00843571,0.302372,0.989009
665,899,3.31321,-0.00911279,0.302377,0.98863
673,891,3.31259,-0.0103574,0.302804,0.987708
681,883,3.31397,-0.00782075,0.301598,0.98715
689,875,3.31374,-0.00904408,0.301591,0.986401
697,867,3.31282,-0.00982914,0.302025,0.985782
705,859,3.31438,-0.0078347,0.30082,0.9849
713,851,3.31368,-0.00915025,0.30125,0.983962
721,843,3.31312,-0.0097624,0.301252,0.983613
729,835,3.31418,-0.00788603,0.300474,0.982454
737,827,3.31339,-0.00920041,0.3009,0.98152
745,819,3.31302,-0.0103697,0.300904,0.980829
753,811,3.31393,-0.00807527,0.300136,0.979953
761,803,3.313,-0.0093697,0.30056,0.979205
769,795,3.31475,-0.00725543,0.299355,0.978175
777,787,3.31373,-0.00865114,0.299781,0.977185
785,779,3.31443,-0.00663937,0.29904,0.976253
793,771,3.31441,-0.00797965,0.299013,0.975338
801,763,3.31334,-0.00927104,0.299441,0.974395
809,755,3.31247,-0.01055,0.299869,0.97346
817,747,3.31387,-0.00863819,0.299101,0.972335
825,739,3.31332,-0.00981781,0.299096,0.97164
833,731,3.31426,-0.00799819,0.298325,0.970462
841,723,3.31352,-0.00985241,0.298755,0.969193
849,715,3.31416,-0.00809162,0.297986,0.967967
857,707,3.31364,-0.00935858,0.297988,0.967243
865,699,3.31258,-0.0106978,0.298423,0.966278
873,691,3.31368,-0.00879592,0.297658,0.965155
881,683,3.31249,-0.0101198,0.298094,0.964213
889,675,3.31359,-0.00886473,0.297328,0.962674
897,667,3.3125,-0.0101406,0.297761,0.961751
905,659,3.31391,-0.00810822,0.296749,0.960818
913,651,3.31243,-0.0101247,0.297428,0.959326
921,643,3.31397,-0.00818081,0.296217,0.958358
929,635,3.31289,-0.0101479,0.296653,0.957017
937,627,3.31339,-0.00896333,0.296318,0.955251
945,619,3.31246,-0.0102769,0.296321,0.954491
953,611,3.313,-0.0089901,0.295987,0.952788
961,603,3.31185,-0.0109836,0.296436,0.951466
969,595,3.3123,-0.00975592,0.296118,0.949731
977,587,3.31287,-0.00781204,0.29535,0.948572
985,579,3.31171,-0.00983321,0.29579,0.947227
993,571,3.31238,-0.00910662,0.295477,0.945192
1001,563,3.31108,-0.0111203,0.295922,0.943848
1009,555,3.31179,-0.00983039,0.295143,0.942273
1017,547,3.31248,-0.00855133,0.294439,0.940696
1025,539,3.31124,-0.0105405,0.294819,0.939386
1033,531,3.31047,-0.0211289,0.294614,0.937908
1041,523,3.31044,-0.0170628,0.293864,0.935557
1049,515,3.3112,-0.0122568,0.292816,0.934063
1057,507,3.3117,-0.00822265,0.291588,0.931669
1065,499,3.31235,-0.0143525,0.29082,0.929804
1073,491,3.31251,-0.0113825,0.290041,0.927905
1081,483,3.31147,-0.0105546,0.28959,0.926017
1089,475,3.31154,-0.01516,0.288814,0.923741
1097,467,3.31225,-0.0120292,0.287589,0.922105
1105,459,3.3127,-0.00795227,0.286366,0.919974
1113,451,3.31104,-0.00899844,0.286818,0.917718
1121,443,3.31154,-0.0134423,0.285586,0.915694
1129,435,3.31203,-0.00933851,0.28437,0.913337
1137,427,3.31243,-0.00690607,0.283593,0.911118
1145,419,3.31234,-0.0114965,0.282817,0.908885
1153,411,3.31118,-0.0107096,0.282365,0.906953
1161,403,3.31081,-0.0160788,0.282162,0.904157
1169,395,3.31178,-0.011843,0.280367,0.901957
1177,387,3.31221,-0.00758414,0.279146,0.899629
1185,379,3.31189,-0.014009,0.278817,0.897529
1193,371,3.31226,-0.01056,0.277596,0.894748
1201,363,3.31276,-0.00629348,0.276373,0.892403
1209,355,3.31093,-0.0144142,0.276364,0.890578
1217,347,3.31152,-0.0108902,0.275153,0.887845
1225,339,3.31134,-0.0155827,0.274373,0.8856
1233,331,3.31094,-0.0139012,0.274012,0.882786
1241,323,3.31201,-0.0095199,0.27237,0.880621
1249,315,3.31186,-0.0149333,0.271589,0.878011
1257,307,3.31217,-0.0106857,0.270364,0.875612
1265,299,3.31246,-0.0070983,0.269152,0.872859
1273,291,3.31238,-0.0125432,0.268369,0.870239
1281,283,3.31134,-0.0153974,0.268228,0.868085
1289,275,3.31186,-0.0136153,0.266817,0.865293
1297,267,3.31012,-0.0137374,0.266811,0.862537
1305,259,3.3121,-0.00642733,0.264821,0.859575
1313,251,3.31045,-0.0155137,0.264809,0.857235
1321,243,3.31049,-0.0166718,0.264356,0.854968
1329,235,3.31088,-0.0093032,0.26281,0.852251
1337,227,3.31091,-0.014862,0.262035,0.849658
1345,219,3.31069,-0.0112319,0.261251,0.846709
1353,211,3.31046,-0.0167807,0.26047,0.844139
1361,203,3.31195,-0.0112414,0.25892,0.841311
1369,195,3.31066,-0.00945978,0.258474,0.838406
1377,187,3.31094,-0.0206843,0.258036,0.836007
1385,179,3.31052,-0.0113705,0.256486,0.833064
1393,171,3.31138,-0.0132321,0.255597,0.830456
1401,163,3.31003,-0.015219,0.255354,0.827668
1409,155,3.31067,-0.0102094,0.253838,0.824427
1417,147,3.31011,-0.0152477,0.252915,0.819179
1425,139,3.31048,-0.0191258,0.252621,0.819709
1433,131,3.30999,-0.010387,0.251352,0.816229
1441,123,3.31215,-0.0122885,0.249361,0.813466
1449,115,3.30942,-0.0123999,0.249791,0.810694
1457,107,3.31137,-0.0144218,0.247795,0.807871
1465,99,3.31158,-0.0124882,0.247017,0.805292
1473,91,3.30989,-0.0171876,0.247386,0.802188
1481,83,3.31129,-0.0153151,0.245448,0.799362
1489,75,3.3116,-0.0113949,0.244356,0.79664
1497,67,3.31152,-0.00944333,0.24345,0.794019
1505,59,3.31162,-0.00750661,0.242664,0.79142
1513,51,3.31166,-0.01224,0.24146,0.788326
1521,43,3.3119,-0.00836534,0.240237,0.785513
1529,35,3.31156,-0.0143226,0.239454,0.782946
1537,27,3.31181,-0.0111176,0.238239,0.779828
1545,19,3.31105,-0.0172656,0.237992,0.777016
1553,11,3.31117,-0.0161156,0.237098,0.774046
1561,3,3.31174,-0.0140425,0.235876,0.771659