Folder: MyBatteryML/hust_correlation_analysis/matrices (part 17)

File: HUST_5-2_cycle_feature_matrix.csv
cycle_number,rul,voltage,current,capacity,charge_capacity
1,1928,3.31724,0.0332231,0.273621,1.03102
10,1919,3.30531,-0.0144265,0.289623,1.00565
19,1910,3.30987,-0.0121345,0.285957,1.01407
28,1901,3.3113,-0.0113274,0.284405,1.01799
37,1892,3.31455,-0.00944302,0.281971,1.02033
46,1883,3.31437,-0.0112188,0.282091,1.02197
55,1874,3.31516,-0.0114252,0.281692,1.02209
64,1865,3.31506,-0.0118781,0.281059,1.02208
73,1856,3.31712,-0.00938896,0.279576,1.0217
82,1847,3.31705,-0.0111695,0.279572,1.02075
91,1838,3.31593,-0.0118786,0.279974,1.02018
100,1829,3.31746,-0.00935438,0.278652,1.0196
109,1820,3.3171,-0.0106117,0.278649,1.01891
118,1811,3.31671,-0.0112728,0.279046,1.01836
127,1802,3.31787,-0.00936116,0.27782,1.01745
136,1793,3.31747,-0.0100572,0.27812,1.01687
145,1784,3.31632,-0.0113669,0.278917,1.01575
154,1775,3.31747,-0.00946786,0.277594,1.01483
163,1766,3.31722,-0.0100904,0.277593,1.01449
172,1757,3.31633,-0.0114097,0.278388,1.01335
181,1748,3.31634,-0.0119298,0.278387,1.01308
190,1739,3.31783,-0.00950155,0.277064,1.01245
199,1730,3.31739,-0.0100931,0.277463,1.01191
208,1721,3.31655,-0.0107338,0.277862,1.01134
217,1712,3.31614,-0.0114362,0.278264,1.01076
226,1703,3.31705,-0.00952742,0.277528,1.00963
235,1694,3.31703,-0.0101894,0.277337,1.00927
244,1685,3.3169,-0.010268,0.27774,1.00903
253,1676,3.31605,-0.010527,0.278145,1.00867
262,1667,3.31619,-0.0115387,0.278144,1.00685
271,1658,3.3149,-0.0123386,0.278953,1.00729
280,1649,3.31645,-0.0103728,0.278025,1.00617
289,1640,3.31616,-0.0102873,0.277617,1.00642
298,1631,3.3154,-0.0117249,0.278031,1.00546
307,1622,3.31485,-0.0121517,0.278219,1.00525
316,1613,3.31634,-0.00969891,0.277094,1.00437
325,1604,3.31637,-0.0102828,0.277093,1.00406
334,1595,3.3158,-0.0116614,0.277502,1.00314
343,1586,3.31566,-0.0116069,0.277497,1.00315
352,1577,3.31687,-0.00973192,0.276659,1.00196
361,1568,3.31662,-0.0103315,0.276566,1.00165
370,1559,3.31579,-0.0109545,0.276975,1.00113
379,1550,3.31477,-0.0123552,0.277573,1.00017
388,1541,3.31707,-0.00907365,0.275634,1.00015
397,1532,3.31662,-0.00982921,0.276041,0.999551
406,1523,3.31621,-0.0109879,0.276449,0.998735
415,1514,3.31554,-0.0116534,0.276448,0.998376
424,1505,3.3146,-0.0124106,0.276857,0.997767
433,1496,3.31641,-0.00973938,0.275514,0.997214
442,1487,3.31623,-0.0110863,0.275922,0.996291
451,1478,3.31614,-0.0109844,0.276431,0.996346
460,1469,3.31519,-0.0123016,0.276333,0.995454
469,1460,3.31389,-0.0125085,0.277159,0.994909
478,1451,3.31637,-0.00981046,0.2754,0.994568
487,1442,3.31625,-0.0104647,0.275812,0.994016
496,1433,3.31538,-0.0112312,0.276226,0.993414
505,1424,3.31409,-0.0118646,0.276224,0.993072
514,1415,3.31455,-0.0124947,0.276222,0.992754
523,1406,3.31588,-0.00978108,0.27529,0.991986
532,1397,3.31475,-0.0112388,0.275702,0.99103
541,1388,3.31478,-0.011918,0.276118,0.990717
550,1379,3.31497,-0.0119344,0.276118,0.990464
559,1370,3.31585,-0.00985005,0.274765,0.989558
568,1361,3.31527,-0.0106048,0.275268,0.988776
577,1352,3.3146,-0.0113609,0.275594,0.988356
586,1343,3.31425,-0.0125617,0.276011,0.987528
595,1334,3.31502,-0.00990017,0.274656,0.986924
604,1325,3.31461,-0.0105597,0.27507,0.986361
613,1316,3.31482,-0.0111662,0.275066,0.986042
622,1307,3.31353,-0.0120427,0.275484,0.985387
631,1298,3.31321,-0.0126174,0.275734,0.985101
640,1289,3.31568,-0.009955,0.274131,0.984511
649,1280,3.31442,-0.0107207,0.274547,0.983893
658,1271,3.31447,-0.0113667,0.274545,0.98356
667,1262,3.31352,-0.0127348,0.275388,0.982436
676,1253,3.31473,-0.0101364,0.274029,0.981792
685,1244,3.31433,-0.0107543,0.27445,0.981267
694,1235,3.31385,-0.0120938,0.274693,0.980586
703,1226,3.31326,-0.0127646,0.274865,0.980013
712,1217,3.31472,-0.0101268,0.273927,0.979435
721,1208,3.3139,-0.01137,0.273925,0.978552
730,1199,3.31352,-0.0122116,0.274348,0.977899
739,1190,3.312,-0.0129474,0.274773,0.977318
748,1181,3.31463,-0.0108261,0.273404,0.976415
757,1172,3.3137,-0.0116006,0.27383,0.975817
766,1163,3.31304,-0.0123167,0.274258,0.975229
775,1154,3.31423,-0.0102659,0.273312,0.974074
784,1145,3.31371,-0.0115272,0.27331,0.973446
793,1136,3.31361,-0.0123512,0.273738,0.97282
802,1127,3.31262,-0.0130267,0.273738,0.97249
811,1118,3.31441,-0.0103649,0.272793,0.971621
820,1109,3.31351,-0.0115834,0.272792,0.971009
829,1100,3.31311,-0.0130586,0.273219,0.97005
838,1091,3.3138,-0.0103843,0.272273,0.969199
847,1082,3.31355,-0.0116676,0.272272,0.968552
856,1073,3.31256,-0.0130712,0.272699,0.967629
865,1064,3.31404,-0.0103809,0.271752,0.96677
874,1055,3.31271,-0.0116745,0.2727,0.965904
883,1046,3.31268,-0.01307,0.272612,0.964999
892,1037,3.31282,-0.0102626,0.27166,0.964163
901,1028,3.31311,-0.0118192,0.272092,0.963183
910,1019,3.31123,-0.0126926,0.27272,0.962528
919,1010,3.3133,-0.0104773,0.271144,0.961652
928,1001,3.31296,-0.0113213,0.271578,0.961023
937,992,3.31175,-0.0125699,0.272014,0.960179
946,983,3.31344,-0.0106073,0.27106,0.95893
955,974,3.311,-0.0120507,0.271936,0.957765
964,965,3.31156,-0.0132887,0.271494,0.957387
973,956,3.31243,-0.0105763,0.270538,0.956501
982,947,3.31093,-0.0121221,0.27142,0.95555
991,938,3.31115,-0.013486,0.271418,0.95464
1000,929,3.31192,-0.0113427,0.270464,0.953478
1009,920,3.31028,-0.0128923,0.271347,0.952269
1018,911,3.31218,-0.0107879,0.27039,0.951059
1027,902,3.31053,-0.0121993,0.270831,0.948702
1036,893,3.3095,-0.0136699,0.271273,0.94922
1045,884,3.31089,-0.0115587,0.270317,0.948013
1054,875,3.30996,-0.013039,0.270761,0.947078
1063,866,3.31065,-0.0108473,0.269802,0.94589
1072,857,3.31009,-0.0123069,0.269798,0.945196
1081,848,3.30897,-0.0137445,0.270697,0.944073
1090,839,3.31009,-0.0116485,0.269736,0.94283
1099,830,3.30982,-0.0131357,0.269737,0.942132
1108,821,3.30989,-0.0109486,0.269227,0.940701
1117,812,3.30883,-0.0124639,0.269678,0.939754
1126,803,3.31014,-0.0103887,0.268948,0.9385
1135,794,3.3092,-0.0125394,0.269167,0.937264
1144,785,3.30774,-0.0141188,0.270077,0.936062
1153,776,3.3092,-0.0119093,0.269112,0.934858
1162,767,3.30776,-0.0141288,0.269568,0.933598
1171,758,3.30915,-0.0119887,0.2686,0.931015
1180,749,3.30705,-0.0136552,0.270057,0.931106
1189,740,3.30853,-0.0113852,0.268553,0.929912
1198,731,3.30716,-0.0136139,0.269009,0.92864
1207,722,3.30844,-0.0113831,0.268043,0.927431
1216,713,3.30698,-0.0135888,0.268503,0.92616
1225,704,3.30785,-0.0122056,0.267995,0.924315
1234,695,3.30602,-0.0137631,0.268464,0.923372
1243,686,3.30705,-0.0122724,0.267493,0.921791
1252,677,3.30487,-0.0145796,0.268429,0.920275
1261,668,3.30615,-0.012276,0.267456,0.919058
1270,659,3.3052,-0.0146335,0.267922,0.917741
1279,650,3.30636,-0.0130772,0.267178,0.916182
1288,641,3.30653,-0.0115518,0.266443,0.914362
1297,632,3.3048,-0.0131576,0.266991,0.913405
1306,623,3.30571,-0.0118011,0.266414,0.911504
1315,614,3.30403,-0.0141753,0.266891,0.910203
1324,605,3.30436,-0.0128029,0.266395,0.908308
1333,596,3.30555,-0.0112368,0.2652,0.906701
1342,587,3.30386,-0.0202764,0.265404,0.905037
1351,578,3.30409,-0.0187202,0.264904,0.903226
1360,569,3.30332,-0.0172368,0.264902,0.901446
1369,560,3.30265,-0.0177978,0.264887,0.899671
1378,551,3.30485,-0.0168597,0.261961,0.897444
1387,542,3.30169,-0.0213824,0.263478,0.895975
1396,533,3.30363,-0.0178381,0.261746,0.89426
1405,524,3.30338,-0.0129438,0.260455,0.891912
1414,515,3.30456,-0.0162896,0.25898,0.889538
1423,506,3.30193,-0.0208169,0.259938,0.888328
1432,497,3.30358,-0.0118015,0.257499,0.885791
1441,488,3.30307,-0.0170659,0.2565,0.883577
1450,479,3.30519,-0.012126,0.254548,0.881458
1459,470,3.30158,-0.0154988,0.255976,0.879301
1468,461,3.30289,-0.0188072,0.254017,0.877201
1477,452,3.30318,-0.0159407,0.253012,0.874923
1486,443,3.30272,-0.0172676,0.252964,0.87284
1495,434,3.30407,-0.0186249,0.251003,0.87036
1504,425,3.30444,-0.0113495,0.248571,0.868204
1513,416,3.30185,-0.0147533,0.249512,0.866296
1522,407,3.30325,-0.0120265,0.2485,0.863942
1531,398,3.30284,-0.0160022,0.247013,0.861339
1540,389,3.30248,-0.0174548,0.246949,0.859466
1549,380,3.30399,-0.0103666,0.244985,0.8567
1558,371,3.30159,-0.0222841,0.245793,0.854837
1567,362,3.30134,-0.0157833,0.243961,0.852063
1576,353,3.30142,-0.0173684,0.243888,0.8499
1585,344,3.30206,-0.0121875,0.242389,0.847542
1594,335,3.30231,-0.0179864,0.241366,0.845214
1603,326,3.30247,-0.0143052,0.239863,0.842241
1612,317,3.30208,-0.0113929,0.239306,0.839681
1621,308,3.3023,-0.0105736,0.238273,0.83774
1630,299,3.30154,-0.0173399,0.237716,0.834819
1639,290,3.30239,-0.0141391,0.236204,0.832845
1648,281,3.30036,-0.0229311,0.236199,0.830434
1657,272,3.30123,-0.0176839,0.234689,0.828049
1666,263,3.30132,-0.0170257,0.234124,0.825816
1675,254,3.30177,-0.0126155,0.232607,0.823087
1684,245,3.30081,-0.0195022,0.232033,0.820179
1693,236,3.30092,-0.0172411,0.230989,0.817585
1702,227,3.30127,-0.0216794,0.229466,0.814908
1711,218,3.30054,-0.0196216,0.228886,0.812227
1720,209,3.30144,-0.0164269,0.22736,0.809973
1729,200,3.30165,-0.0208693,0.225837,0.807325
1738,191,3.30118,-0.0202038,0.225245,0.80509
1747,182,3.30126,-0.0179373,0.224182,0.802463
1756,173,3.30072,-0.0157923,0.223585,0.799548
1765,164,3.30099,-0.0195577,0.222054,0.797183
1774,155,3.2989,-0.021748,0.222516,0.794918
1783,146,3.29976,-0.0148853,0.220687,0.792056
1792,137,3.30008,-0.0141753,0.219911,0.78982
1801,128,3.29899,-0.0236446,0.219307,0.7873
1810,119,3.2998,-0.0180403,0.217762,0.784929
1819,110,3.29985,-0.0226383,0.216218,0.782286
1828,101,3.30056,-0.0204889,0.215139,0.779607
1837,92,3.3007,-0.0171537,0.214054,0.777356
1846,83,3.29968,-0.0149316,0.213432,0.774428
1855,74,3.30155,-0.0196478,0.211436,0.77202
1864,65,3.30075,-0.0174533,0.210784,0.76909
1873,56,3.3008,-0.0174562,0.210149,0.766575
1882,47,3.30147,-0.0223686,0.20859,0.763878
1891,38,3.30157,-0.0174476,0.207027,0.761189
1900,29,3.30172,-0.01661,0.206382,0.758973
1909,20,3.3017,-0.0168272,0.205735,0.756381
1918,11,3.30152,-0.011875,0.204623,0.753413
1926,3,3.29969,-0.0232169,0.204617,0.75174

File: HUST_5-3_cycle_feature_matrix.csv
cycle_number,rul,voltage,current,capacity,charge_capacity
1,2691,3.32689,-0.0143536,0.279857,1.02883
14,2678,3.31427,-0.0166239,0.285276,1.01943
27,2665,3.31526,-0.0166247,0.28433,1.01735
40,2652,3.31598,-0.0155512,0.28338,1.01581
53,2639,3.31532,-0.0167688,0.283379,1.01516
66,2626,3.31615,-0.0156586,0.282851,1.0134
79,2613,3.3158,-0.0169364,0.282845,1.01274
92,2600,3.31647,-0.0149791,0.281898,1.01164
105,2587,3.31622,-0.0169347,0.281897,1.01065
118,2574,3.31507,-0.0182111,0.282311,1.00977
131,2561,3.31714,-0.0156714,0.280946,1.00918
144,2548,3.31589,-0.016925,0.281362,1.00832
157,2535,3.31594,-0.0182564,0.28136,1.00765
170,2522,3.31655,-0.0157772,0.28041,1.00677
183,2509,3.31702,-0.0168243,0.280408,1.00625
196,2496,3.31608,-0.0176642,0.280407,1.00583
209,2483,3.31588,-0.0183032,0.280824,1.00528
222,2470,3.31683,-0.0157661,0.279454,1.00465
235,2457,3.31686,-0.0171332,0.279872,1.00375
248,2444,3.3165,-0.0171372,0.279874,1.00401
261,2431,3.31517,-0.0175026,0.280289,1.00332
274,2418,3.31462,-0.01865,0.281222,1.00253
287,2405,3.3172,-0.0166211,0.278919,1.00189
300,2392,3.3169,-0.0172382,0.278914,1.00157
313,2379,3.31656,-0.0184591,0.278917,1.00098
326,2366,3.31527,-0.0186445,0.27933,1.00065
339,2353,3.31793,-0.0165591,0.277543,1.00003
352,2340,3.31677,-0.0172935,0.277961,0.999436
365,2327,3.31703,-0.0184711,0.277541,0.999068
378,2314,3.31889,-0.0159271,0.276172,0.998443
391,2301,3.31858,-0.0164588,0.27617,0.998177
404,2288,3.31775,-0.0179427,0.276583,0.997206
417,2275,3.31704,-0.0186362,0.276585,0.996883
430,2262,3.31919,-0.0158623,0.27521,0.996336
443,2249,3.3191,-0.0172044,0.275212,0.99568
456,2236,3.31844,-0.0178745,0.275208,0.995325
469,2223,3.31997,-0.0152098,0.273837,0.994757
482,2210,3.31936,-0.0160087,0.274249,0.994119
495,2197,3.31835,-0.0166246,0.274665,0.993589
508,2184,3.31885,-0.0173418,0.274663,0.993222
521,2171,3.31807,-0.0187234,0.274663,0.992544
534,2158,3.32018,-0.0160799,0.27329,0.991936
547,2145,3.31918,-0.016693,0.273381,0.991638
560,2132,3.31932,-0.0173372,0.273287,0.991302
573,2119,3.31886,-0.0187078,0.273288,0.990628
586,2106,3.3187,-0.0186746,0.273286,0.990634
599,2093,3.31978,-0.0166691,0.272326,0.989481
612,2080,3.31917,-0.0172131,0.272325,0.989208
625,2067,3.31843,-0.0186333,0.272738,0.988275
638,2054,3.31927,-0.0160598,0.271588,0.987626
651,2041,3.32044,-0.0167058,0.271361,0.987312
664,2028,3.31967,-0.0174291,0.271359,0.98694
677,2015,3.31956,-0.0184238,0.271772,0.986472
690,2002,3.32034,-0.0158324,0.270395,0.985584
703,1989,3.32088,-0.0167554,0.270395,0.985121
716,1976,3.31916,-0.0175394,0.270808,0.984509
729,1963,3.31976,-0.0188413,0.27081,0.983861
742,1950,3.32107,-0.0161241,0.269431,0.983281
755,1937,3.31967,-0.0167492,0.270067,0.982748
768,1924,3.31935,-0.0179143,0.270259,0.981944
781,1911,3.3192,-0.0189162,0.270257,0.981442
794,1898,3.32083,-0.0169077,0.268878,0.980251
807,1885,3.31956,-0.0177497,0.269294,0.979866
820,1872,3.31927,-0.0189938,0.26971,0.979021
833,1859,3.32108,-0.0158433,0.267911,0.978867
846,1846,3.32089,-0.0176775,0.268326,0.977749
859,1833,3.31983,-0.0184808,0.268325,0.97734
872,1820,3.32158,-0.0170042,0.267649,0.975912
885,1807,3.32002,-0.0178287,0.267773,0.975287
898,1794,3.31975,-0.0190549,0.267773,0.974679
911,1781,3.32136,-0.0171173,0.266802,0.97324
924,1768,3.32095,-0.0177038,0.266383,0.973369
937,1755,3.32043,-0.0191082,0.266798,0.972449
950,1742,3.32108,-0.0165693,0.26583,0.971544
963,1729,3.32171,-0.0178423,0.265827,0.970911
976,1716,3.32001,-0.0192353,0.266244,0.970003
989,1703,3.32199,-0.0165524,0.264437,0.969577
1002,1690,3.32165,-0.0178176,0.264853,0.968737
1015,1677,3.32025,-0.0186942,0.265269,0.968089
1028,1664,3.32263,-0.0166214,0.263878,0.96715
1041,1651,3.32149,-0.0179962,0.264293,0.96624
1054,1638,3.32133,-0.0192934,0.264293,0.965604
1067,1625,3.32234,-0.0167267,0.2629,0.964898
1080,1612,3.32187,-0.0180099,0.263318,0.964055
1093,1599,3.32098,-0.0187759,0.263315,0.963667
1106,1586,3.32242,-0.0167217,0.26234,0.962487
1119,1573,3.32198,-0.0182536,0.262756,0.961515
1132,1560,3.32212,-0.018797,0.26192,0.961671
1145,1547,3.323,-0.016755,0.261361,0.960274
1158,1534,3.32153,-0.0184614,0.262197,0.959005
1171,1521,3.32123,-0.0178386,0.261775,0.958275
1184,1508,3.32264,-0.01583,0.260795,0.957057
1197,1495,3.32184,-0.0183,0.260793,0.957079
1210,1482,3.32123,-0.0249233,0.260792,0.956061
1223,1469,3.32258,-0.0210536,0.259393,0.954734
1236,1456,3.32254,-0.0207823,0.258975,0.953822
1249,1443,3.32384,-0.0156828,0.257166,0.952061
1262,1430,3.32146,-0.020237,0.258826,0.951483
1275,1417,3.32208,-0.019681,0.257991,0.950911
1288,1404,3.32328,-0.0228902,0.256595,0.949597
1301,1391,3.32208,-0.0246947,0.257006,0.948485
1314,1378,3.32372,-0.0162856,0.25498,0.947299
1327,1365,3.32334,-0.0194364,0.255196,0.946806
1340,1352,3.32272,-0.0191046,0.255193,0.945698
1353,1339,3.32264,-0.0180191,0.254781,0.945194
1366,1326,3.3235,-0.0178188,0.254208,0.944125
1379,1313,3.32303,-0.0237878,0.253795,0.943658
1392,1300,3.32445,-0.0189022,0.252398,0.941825
1405,1287,3.32342,-0.0195445,0.252398,0.941255
1418,1274,3.32307,-0.0180077,0.251989,0.939713
1431,1261,3.32488,-0.0151864,0.251092,0.939101
1444,1248,3.32341,-0.0236451,0.251,0.938254
1457,1235,3.32296,-0.0234115,0.251497,0.937115
1470,1222,3.32382,-0.0183749,0.249605,0.935091
1483,1209,3.32334,-0.0227902,0.250009,0.935233
1496,1196,3.32492,-0.0228925,0.248216,0.933157
1509,1183,3.32434,-0.0160056,0.24828,0.932971
1522,1170,3.32293,-0.0246362,0.248609,0.932075
1535,1157,3.32451,-0.0153087,0.247617,0.930898
1548,1144,3.3234,-0.0240372,0.248022,0.929964
1561,1131,3.32267,-0.0236107,0.248019,0.928914
1574,1118,3.32317,-0.0215457,0.247522,0.927528
1587,1105,3.32277,-0.0193864,0.246616,0.926436
1600,1092,3.32375,-0.0173307,0.246024,0.925023
1613,1079,3.32296,-0.0187825,0.246431,0.923893
1626,1066,3.32195,-0.0187664,0.246429,0.922862
1639,1053,3.32309,-0.0216783,0.244622,0.921926
1652,1040,3.32349,-0.0184185,0.243801,0.920032
1665,1027,3.32324,-0.0162022,0.243217,0.918776
1678,1014,3.32192,-0.0203181,0.244024,0.917663
1691,1001,3.32279,-0.0164193,0.243024,0.916064
1704,988,3.3232,-0.021156,0.241789,0.915313
1717,975,3.32163,-0.017183,0.243004,0.914322
1730,962,3.32173,-0.0214673,0.24202,0.91245
1743,949,3.32279,-0.0193924,0.241265,0.911236
1756,936,3.32073,-0.0199089,0.241827,0.909318
1769,923,3.32183,-0.0239808,0.240414,0.907658
1782,910,3.32237,-0.0225461,0.239409,0.906155
1795,897,3.32144,-0.0210789,0.239405,0.904308
1808,884,3.32231,-0.0188746,0.238398,0.903148
1821,871,3.32044,-0.0180974,0.238798,0.900769
1834,858,3.32142,-0.0186423,0.238193,0.899375
1847,845,3.32103,-0.0229323,0.237343,0.897429
1860,832,3.32008,-0.0242989,0.237586,0.896597
1873,819,3.32153,-0.0178582,0.236252,0.893996
1886,806,3.31897,-0.0222861,0.236975,0.892606
1899,793,3.31949,-0.025184,0.235551,0.890271
1912,780,3.320132,-0.0238718,0.23494,0.888466
1925,767,3.31814,-0.0263957,0.235756,0.886917
1938,754,3.32027,-0.0180143,0.23305,0.884214
1951,741,3.31962,-0.021001,0.233798,0.882676
1964,728,3.31864,-0.024132,0.232426,0.880292
1977,715,3.31896,-0.0227168,0.231867,0.878276
1990,702,3.31794,-0.0239671,0.232128,0.876259
2003,689,3.31917,-0.0184695,0.230221,0.874414
2016,676,3.31639,-0.0274442,0.231032,0.87223
2029,663,3.3166,-0.0268567,0.230415,0.870109
2042,650,3.31721,-0.0262562,0.229792,0.867966
2055,637,3.31767,-0.0194551,0.227932,0.865407
2068,624,3.31793,-0.0168519,0.227302,0.862849
2081,611,3.31547,-0.0200692,0.228183,0.861048
2094,598,3.31591,-0.0252914,0.227084,0.858811
2107,585,3.3156,-0.0246907,0.226457,0.85667
2120,572,3.3167,-0.0177691,0.224589,0.854111
2133,559,3.31644,-0.0192128,0.224363,0.852367
2146,546,3.31443,-0.0285902,0.224774,0.850133
2159,533,3.31633,-0.0156457,0.222802,0.847752
2172,520,3.31468,-0.0230524,0.223083,0.84536
2185,507,3.31458,-0.0228248,0.222946,0.843052
2198,494,3.31563,-0.0182243,0.220975,0.840499
2211,481,3.31502,-0.0259099,0.220338,0.838373
2224,468,3.31519,-0.0217469,0.21927,0.83537
2237,455,3.31251,-0.0273246,0.220519,0.833698
2250,442,3.31315,-0.0223104,0.219033,0.831265
2263,429,3.31315,-0.0221166,0.218382,0.828929
2276,416,3.31515,-0.0213338,0.215519,0.826236
2289,403,3.31202,-0.0253937,0.216935,0.823936
2302,390,3.31383,-0.0222971,0.215172,0.821988
2315,377,3.31367,-0.0267382,0.214136,0.818963
2328,364,3.31116,-0.030242,0.215424,0.817146
2341,351,3.31208,-0.0237776,0.213016,0.814249
2354,338,3.31217,-0.023026,0.212349,0.812128
2367,325,3.31256,-0.0208406,0.21126,0.809547
2380,312,3.31252,-0.0266836,0.210178,0.80727
2393,299,3.31178,-0.0260321,0.209922,0.804867
2406,286,3.31279,-0.021657,0.20841,0.802111
2419,273,3.31264,-0.0209524,0.20773,0.799946
2432,260,3.31292,-0.0201617,0.20705,0.797826
2445,247,3.31371,-0.020815,0.204695,0.794537
2458,234,3.31081,-0.0245263,0.205522,0.792665
2471,221,3.3108,-0.0217213,0.204834,0.790047
2484,208,3.31036,-0.0308834,0.20415,0.787628
2497,195,3.31052,-0.0301814,0.203455,0.785454
2510,182,3.31123,-0.0256316,0.20192,0.782713
2523,169,3.31139,-0.0224194,0.200797,0.780441
2536,156,3.31145,-0.0216925,0.200098,0.77829
2549,143,3.31179,-0.0263448,0.198554,0.77555
2562,130,3.31262,-0.0217593,0.197009,0.772799
2575,117,3.30973,-0.0255065,0.197841,0.77098
2588,104,3.30977,-0.0326625,0.196715,0.768392
2601,91,3.31044,-0.0295647,0.195576,0.766061
2614,78,3.31025,-0.028854,0.194852,0.76388
2627,65,3.31132,-0.0310217,0.192468,0.761337
2640,52,3.31109,-0.0314325,0.192649,0.757301
2653,39,3.31175,-0.0281292,0.191006,0.756279
2666,26,3.31047,-0.0309611,0.191111,0.753627
2679,13,3.31093,-0.0261566,0.189534,0.750873
2689,3,3.31281,-0.0203114,0.187549,0.748742