Folder: MyBatteryML/hust_correlation_analysis/matrices (part 18)

File: HUST_5-4_cycle_feature_matrix.csv
cycle_number,rul,voltage,current,capacity,charge_capacity
1,1964,3.31402,-0.00507444,0.344667,1.03022
11,1954,3.30608,-0.00569619,0.349424,1.02307
21,1944,3.30561,-0.00801665,0.349319,1.02169
31,1934,3.30754,-0.00621031,0.347736,1.0208
41,1924,3.30768,-0.00738214,0.34775,1.02035
51,1914,3.30724,-0.00813211,0.347845,1.01995
61,1904,3.30834,-0.00634013,0.347106,1.01886
71,1894,3.30787,-0.00677094,0.347214,1.01862
81,1884,3.30827,-0.00798813,0.346632,1.01802
91,1874,3.30979,-0.00568538,0.345621,1.01746
101,1864,3.3093,-0.00632505,0.345502,1.01703
111,1854,3.30903,-0.00683824,0.345508,1.01673
121,1844,3.30897,-0.00745905,0.345501,1.01635
131,1834,3.30878,-0.00801916,0.345502,1.01602
141,1824,3.31039,-0.00570322,0.34437,1.0154
151,1814,3.31009,-0.00633367,0.344365,1.01499
161,1804,3.3098,-0.00681331,0.344358,1.01468
171,1794,3.30886,-0.00751579,0.344897,1.01406
181,1784,3.30904,-0.00804504,0.344813,1.01376
191,1774,3.31143,-0.00572525,0.343246,1.01336
201,1764,3.31078,-0.00566301,0.343235,1.01337
211,1754,3.31073,-0.00625852,0.34323,1.01301
221,1744,3.31083,-0.00679501,0.343238,1.01269
231,1734,3.31074,-0.00694177,0.343824,1.01227
241,1724,3.31024,-0.0075084,0.343816,1.01217
251,1714,3.30969,-0.00748108,0.34373,1.01218
261,1704,3.31145,-0.00577167,0.342595,1.01118
271,1694,3.31154,-0.00571504,0.342141,1.01141
281,1684,3.31154,-0.00630064,0.342145,1.01107
291,1674,3.31129,-0.00697009,0.342131,1.01064
301,1664,3.310895,-0.00698322,0.342508,1.00916
311,1654,3.3113,-0.00749821,0.341677,1.0105
321,1644,3.31052,-0.00813469,0.342141,1.00993
331,1634,3.31299,-0.0058426,0.340078,1.0096
341,1624,3.31261,-0.00624999,0.340542,1.0092
351,1614,3.31203,-0.00689188,0.340536,1.00879
361,1604,3.31266,-0.00746288,0.340075,1.0086
371,1594,3.31209,-0.00751553,0.340073,1.00856
381,1584,3.31361,-0.00518452,0.33895,1.00797
391,1574,3.31292,-0.00575079,0.339414,1.00746
401,1564,3.31315,-0.00628839,0.33894,1.00726
411,1554,3.31318,-0.00687549,0.338933,1.00689
421,1544,3.31308,-0.00741431,0.338929,1.00655
431,1534,3.31278,-0.00810276,0.33888,1.00615
441,1524,3.31247,-0.00812794,0.338946,1.00614
451,1514,3.31407,-0.00571104,0.337832,1.00561
461,1504,3.31446,-0.00624241,0.337376,1.00544
471,1494,3.31413,-0.00687577,0.33737,1.00503
481,1484,3.31387,-0.00745933,0.337374,1.00468
491,1474,3.31345,-0.00805195,0.337363,1.00428
501,1464,3.31508,-0.00575218,0.336752,1.0037
511,1454,3.31467,-0.00632206,0.336255,1.00334
521,1444,3.3147,-0.00683486,0.336243,1.00298
531,1434,3.31418,-0.00747956,0.33625,1.00261
541,1424,3.31587,-0.0056459,0.33511,1.00161
551,1414,3.31593,-0.0062174,0.334655,1.00142
561,1404,3.3151,-0.0068586,0.335103,1.00085
571,1394,3.31451,-0.00810623,0.334978,0.999881
581,1384,3.31655,-0.00558697,0.333983,0.999558
591,1374,3.31592,-0.0062561,0.334336,0.999135
601,1364,3.31586,-0.00684983,0.33399,0.998775
611,1354,3.31537,-0.0075475,0.333986,0.998587
621,1344,3.31704,-0.00507733,0.332879,0.997828
631,1334,3.3166,-0.00636857,0.333327,0.996853
641,1324,3.31613,-0.0069137,0.333322,0.996502
651,1314,3.31573,-0.00747257,0.333319,0.996145
661,1304,3.31738,-0.00573087,0.332198,0.995138
671,1294,3.31648,-0.00637565,0.33266,0.994595
681,1284,3.31642,-0.00695993,0.33267,0.994245
691,1274,3.31644,-0.00756864,0.332211,0.994019
701,1264,3.31791,-0.00512024,0.331103,0.993484
711,1254,3.3178,-0.0063667,0.331097,0.992673
721,1244,3.31716,-0.00685823,0.331554,0.992233
731,1234,3.31674,-0.00814332,0.331554,0.991423
741,1224,3.31684,-0.00819905,0.331119,0.991576
751,1214,3.31825,-0.00623084,0.32999,0.990694
761,1204,3.31765,-0.00703324,0.330459,0.99008
771,1194,3.31758,-0.00812503,0.330443,0.989359
781,1184,3.3184,-0.00637602,0.329782,0.988185
791,1174,3.31874,-0.00685269,0.329332,0.988008
801,1164,3.31829,-0.00750474,0.329324,0.987613
811,1154,3.31947,-0.00578258,0.328667,0.986446
821,1144,3.31901,-0.00639812,0.328667,0.986066
831,1134,3.3182,-0.00756199,0.329118,0.985165
841,1124,3.31761,-0.00817153,0.329121,0.984794
851,1114,3.31976,-0.0102428,0.327108,0.984222
861,1104,3.31883,-0.00553325,0.328011,0.983075
871,1094,3.31856,-0.00964796,0.327105,0.981787
881,1084,3.32032,-0.00726445,0.325553,0.98158
891,1074,3.31938,-0.00705454,0.325998,0.980271
901,1064,3.31935,-0.00602263,0.325105,0.979961
911,1054,3.32063,-0.00425035,0.32445,0.978831
921,1044,3.31962,-0.0115486,0.324888,0.977876
931,1034,3.31885,-0.0112907,0.324883,0.976734
941,1024,3.3206,-0.00632414,0.322877,0.975472
951,1014,3.32034,-0.00549509,0.322445,0.97489
961,1004,3.32157,-0.0102231,0.321325,0.97357
971,994,3.32094,-0.010941,0.321788,0.973031
981,984,3.31988,-0.0106936,0.32179,0.97189
991,974,3.32234,-0.00569094,0.319371,0.970834
1001,964,3.32107,-0.00699293,0.320835,0.969744
1011,954,3.32037,-0.0126501,0.319805,0.968818
1021,944,3.32144,-0.0108889,0.319149,0.967703
1031,934,3.32069,-0.0122249,0.319586,0.966684
1041,924,3.32217,-0.00726258,0.317609,0.965421
1051,914,3.32175,-0.00535104,0.31709,0.964188
1061,904,3.32057,-0.00673574,0.317604,0.963144
1071,894,3.32149,-0.0109558,0.316945,0.962073
1081,884,3.32146,-0.0105743,0.316061,0.961307
1091,874,3.32247,-0.00730257,0.31497,0.959959
1101,864,3.32227,-0.00692674,0.314535,0.959052
1111,854,3.3225,-0.0103579,0.313873,0.957172
1121,844,3.32209,-0.0114582,0.31387,0.956736
1131,834,3.3227,-0.00727267,0.312719,0.954384
1141,824,3.32239,-0.00693888,0.312341,0.95347
1151,814,3.32154,-0.00669014,0.312346,0.952332
1161,804,3.32266,-0.0109008,0.311267,0.951446
1171,794,3.32148,-0.0113128,0.311696,0.949738
1181,784,3.32218,-0.00696822,0.310604,0.947755
1191,774,3.32155,-0.00819063,0.310616,0.947017
1201,764,3.32234,-0.0114966,0.309525,0.945377
1211,754,3.3232,-0.00723528,0.308447,0.943377
1221,744,3.32243,-0.00860083,0.308444,0.94251
1231,734,3.32312,-0.00576639,0.307364,0.940893
1241,724,3.32177,-0.0121979,0.307792,0.93928
1251,714,3.32227,-0.0085166,0.306695,0.936813
1261,704,3.32316,-0.0057744,0.30561,0.935118
1271,694,3.32184,-0.00616932,0.306033,0.933393
1281,684,3.32243,-0.00950113,0.304949,0.931753
1291,674,3.32326,-0.00672526,0.303866,0.930085
1301,664,3.32119,-0.00772834,0.304289,0.927995
1311,654,3.32204,-0.00550649,0.303635,0.925811
1321,644,3.3219,-0.00790228,0.30255,0.923444
1331,634,3.32065,-0.00828891,0.302985,0.921772
1341,624,3.32123,-0.00702008,0.302333,0.920318
1351,614,3.32123,-0.00961863,0.301683,0.917705
1361,604,3.32128,-0.00904139,0.301463,0.91569
1371,594,3.32185,-0.00680435,0.300371,0.9136
1381,584,3.32024,-0.00627984,0.300367,0.911309
1391,574,3.32003,-0.0103029,0.299715,0.909133
1401,564,3.32065,-0.00650392,0.298636,0.906722
1411,554,3.32019,-0.00591504,0.298849,0.904552
1421,544,3.3205,-0.00372465,0.298206,0.902326
1431,534,3.31875,-0.0100828,0.298191,0.899709
1441,524,3.31882,-0.00617109,0.297104,0.897306
1451,514,3.31811,-0.0127999,0.297326,0.894672
1461,504,3.31865,-0.0104894,0.296247,0.892648
1471,494,3.31845,-0.00729266,0.295593,0.889659
1481,484,3.31736,-0.0166398,0.295726,0.887435
1491,474,3.31738,-0.0134655,0.295087,0.884479
1501,464,3.31883,-0.00599316,0.293233,0.882458
1511,454,3.31869,-0.00920898,0.292599,0.879567
1521,444,3.31798,-0.00947525,0.292836,0.876908
1531,434,3.31867,-0.00544593,0.291325,0.874683
1541,424,3.31626,-0.0136477,0.292195,0.872167
1551,414,3.31641,-0.0120826,0.291547,0.869522
1561,404,3.31632,-0.00813044,0.290471,0.867089
1571,394,3.31647,-0.00647971,0.289823,0.864476
1581,384,3.31645,-0.0107638,0.289477,0.86231
1591,374,3.31654,-0.00907547,0.28856,0.859512
1601,364,3.31668,-0.00584204,0.287472,0.856627
1611,354,3.31561,-0.00921776,0.287276,0.85375
1621,344,3.31594,-0.00856061,0.286651,0.852187
1631,334,3.31645,-0.0101867,0.285467,0.84894
1641,324,3.31634,-0.00960196,0.284946,0.846907
1651,314,3.31593,-0.00623587,0.284311,0.84393
1661,304,3.31588,-0.00464072,0.283679,0.841547
1671,294,3.31563,-0.00912848,0.283045,0.839054
1681,284,3.31412,-0.00900131,0.283037,0.836474
1691,274,3.31445,-0.00655626,0.281966,0.834458
1701,264,3.31407,-0.0100475,0.281339,0.831473
1711,254,3.3142,-0.00663571,0.280262,0.828626
1721,244,3.31378,-0.0128834,0.280073,0.826641
1731,234,3.31405,-0.00952403,0.279,0.824014
1741,224,3.3146,-0.00697979,0.277943,0.820446
1751,214,3.31398,-0.0104979,0.27732,0.818811
1761,204,3.31476,-0.00631422,0.276375,0.81652
1771,194,3.31434,-0.00464234,0.275629,0.813744
1781,184,3.31214,-0.0144473,0.276058,0.812088
1791,174,3.3124,-0.01033,0.274991,0.809599
1801,164,3.31299,-0.00776771,0.273938,0.807614
1811,154,3.31301,-0.00955499,0.272431,0.804533
1821,144,3.31311,-0.0070698,0.271818,0.802353
1831,134,3.31303,-0.0117727,0.2712,0.80011
1841,124,3.31319,-0.00786232,0.27013,0.797438
1851,114,3.31095,-0.00930543,0.270569,0.795231
1861,104,3.31194,-0.00670748,0.269156,0.791923
1871,94,3.31159,-0.00817933,0.267583,0.79041
1881,84,3.311865,-0.00573776,0.266534,0.788371
1891,74,3.31125,-0.0118594,0.267093,0.786441
1901,64,3.31173,-0.00764163,0.265309,0.784103
1911,54,3.31043,-0.00851798,0.265306,0.782336
1921,44,3.30984,-0.0115525,0.264254,0.779799
1931,34,3.31047,-0.00897198,0.263212,0.777781
1941,24,3.31051,-0.00476276,0.26217,0.77528
1951,14,3.31063,-0.00930888,0.261123,0.773292
1961,4,3.30948,-0.0104468,0.260519,0.771112
1962,3,3.3085,-0.00718756,0.260266,0.770692

File: HUST_5-5_cycle_feature_matrix.csv
cycle_number,rul,voltage,current,capacity,charge_capacity
1,1585,3.31385,0.0314574,0.290498,1.03772
9,1577,3.30324,-0.0175892,0.306812,1.00855
17,1569,3.30868,-0.0128459,0.301926,1.01603
25,1561,3.30899,-0.0150451,0.301064,1.02043
33,1553,3.31132,-0.0131616,0.298459,1.0225
41,1545,3.31064,-0.0155917,0.298957,1.0237
49,1537,3.31177,-0.0148151,0.297708,1.02474
57,1529,3.31321,-0.0124645,0.296439,1.02415
65,1521,3.31407,-0.0124163,0.295617,1.02458
73,1513,3.31308,-0.0137812,0.296026,1.02362
81,1505,3.31289,-0.0148428,0.295321,1.02325
89,1497,3.31476,-0.0124307,0.294352,1.02267
97,1489,3.31401,-0.0137206,0.294758,1.02175
105,1481,3.31414,-0.0148243,0.294069,1.02159
113,1473,3.31522,-0.0124547,0.293488,1.02051
121,1465,3.31483,-0.0136689,0.2939,1.01965
129,1457,3.31475,-0.0143216,0.2939,1.01929
137,1449,3.31555,-0.0125839,0.293452,1.0179
145,1441,3.31515,-0.0131697,0.293451,1.01758
153,1433,3.31503,-0.0143135,0.293453,1.01695
161,1425,3.31429,-0.0150344,0.293862,1.01635
169,1417,3.31538,-0.0131386,0.293002,1.01525
177,1409,3.31517,-0.0137488,0.293002,1.0149
185,1401,3.31421,-0.0144976,0.293412,1.01428
193,1393,3.31579,-0.0125937,0.292553,1.01317
201,1385,3.31491,-0.0132641,0.292967,1.01261
209,1377,3.31468,-0.0139414,0.292966,1.01223
217,1369,3.31393,-0.0145203,0.293428,1.01171
225,1361,3.31498,-0.0127297,0.292523,1.01055
233,1353,3.31501,-0.0132243,0.292521,1.01026
241,1345,3.31339,-0.0135357,0.293771,1.00947
249,1337,3.31281,-0.0137097,0.294347,1.00916
257,1329,3.31243,-0.0146996,0.294136,1.0086
265,1321,3.31208,-0.0154521,0.294609,1.008
273,1313,3.31355,-0.013518,0.293003,1.00733
281,1305,3.31387,-0.014691,0.292908,1.00668
289,1297,3.31259,-0.0154792,0.293751,1.00585
297,1289,3.31515,-0.0133694,0.291635,1.00548
305,1281,3.31403,-0.0141103,0.292469,1.00465
313,1273,3.31331,-0.0147857,0.292889,1.00408
321,1265,3.31281,-0.0154239,0.292893,1.00376
329,1257,3.3146,-0.0129021,0.291618,1.00319
337,1249,3.31386,-0.0135491,0.292035,1.00262
345,1241,3.31331,-0.0148873,0.292456,1.00194
353,1233,3.31298,-0.0154805,0.292454,1.00136
361,1225,3.31441,-0.0129723,0.291592,1.00056
369,1217,3.31386,-0.0143004,0.292016,0.999652
377,1209,3.3134,-0.0149309,0.292014,0.999315
385,1201,3.31315,-0.01546,0.29201,0.999001
393,1193,3.31386,-0.0137259,0.291581,0.997594
401,1185,3.31413,-0.014238,0.291582,0.997354
409,1177,3.31357,-0.0149629,0.291577,0.996919
417,1169,3.31294,-0.0156321,0.292089,0.99635
425,1161,3.31517,-0.0085428,0.290912,0.995185
433,1153,3.31362,-0.014359,0.291566,0.994681
441,1145,3.31331,-0.0150575,0.291567,0.994305
449,1137,3.314,-0.0111147,0.291243,0.993392
457,1129,3.31384,-0.0137118,0.291129,0.992645
465,1121,3.31294,-0.0145522,0.291554,0.99198
473,1113,3.31286,-0.0151297,0.291553,0.991669
481,1105,3.3126,-0.0158165,0.291638,0.991306
489,1097,3.31375,-0.0131984,0.29069,0.990526
497,1089,3.31264,-0.0145381,0.291124,0.989614
505,1081,3.31245,-0.0156691,0.291556,0.988814
513,1073,3.31418,-0.0125094,0.289823,0.988722
521,1065,3.31455,-0.00904318,0.289496,0.987522
529,1057,3.31287,-0.0148695,0.290695,0.987076
537,1049,3.31156,-0.0158935,0.291556,0.986118
545,1041,3.31356,-0.0134568,0.290258,0.985435
553,1033,3.31304,-0.0149998,0.290695,0.984425
561,1025,3.31181,-0.0153426,0.290687,0.984219
569,1017,3.31354,-0.0134131,0.289818,0.983048
577,1009,3.3137,-0.00983235,0.289928,0.98169
585,1001,3.31211,-0.0153672,0.290694,0.981627
593,993,3.31301,-0.0133491,0.289826,0.9805
601,985,3.31318,-0.0146701,0.289824,0.979794
609,977,3.3121,-0.0154779,0.29026,0.979154
617,969,3.31332,-0.0134625,0.289544,0.978025
625,961,3.31242,-0.0142266,0.289832,0.977421
633,953,3.31177,-0.0154802,0.28983,0.976757
641,945,3.31242,-0.0129993,0.289401,0.975643
649,937,3.31228,-0.0142984,0.289401,0.974968
657,929,3.31072,-0.0157716,0.29029,0.973804
665,921,3.31208,-0.0135924,0.289128,0.972941
673,913,3.31138,-0.0149849,0.289418,0.971999
681,905,3.31021,-0.01644,0.290312,0.970849
689,897,3.31182,-0.0137611,0.288995,0.97024
697,889,3.31072,-0.0151585,0.28944,0.969304
705,881,3.31149,-0.0138554,0.289024,0.96759
713,873,3.31096,-0.0144683,0.289022,0.967273
721,865,3.31036,-0.0165144,0.28947,0.966009
729,857,3.31152,-0.0137171,0.288145,0.96671
737,849,3.31044,-0.0152351,0.289046,0.964228
745,841,3.31146,-0.0139777,0.288175,0.962678
753,833,3.31011,-0.0153517,0.288626,0.961754
761,825,3.30911,-0.0168414,0.289233,0.960794
769,817,3.31034,-0.0147265,0.288211,0.959675
777,809,3.30853,-0.0220799,0.288665,0.958034
785,801,3.30968,-0.0148183,0.28825,0.956982
793,793,3.30909,-0.021434,0.287547,0.956151
801,785,3.31023,-0.0175989,0.28646,0.954826
809,777,3.30862,-0.0179137,0.286913,0.953211
817,769,3.31061,-0.0131807,0.285137,0.951303
825,761,3.30891,-0.0180172,0.285132,0.949896
833,753,3.30946,-0.0202227,0.285166,0.948681
841,745,3.31026,-0.0111743,0.283447,0.946985
849,737,3.31103,-0.0145932,0.282119,0.945564
857,729,3.30887,-0.018394,0.282924,0.944013
865,721,3.30948,-0.0203112,0.282953,0.94295
873,713,3.30954,-0.0112816,0.281236,0.941207
881,705,3.31028,-0.00822882,0.280351,0.939256
889,697,3.30847,-0.0152638,0.281692,0.938623
897,689,3.30818,-0.0193139,0.280733,0.936475
905,681,3.30951,-0.0179214,0.279853,0.934961
913,673,3.30898,-0.0139643,0.278491,0.933748
921,665,3.30904,-0.0125267,0.27806,0.932025
929,657,3.30749,-0.0201127,0.278513,0.93037
937,649,3.3086,-0.0187639,0.277631,0.928824
945,641,3.30663,-0.0191263,0.278082,0.927191
953,633,3.30841,-0.0161033,0.275923,0.924807
961,625,3.30865,-0.0162269,0.274961,0.923291
969,617,3.30786,-0.0165492,0.274955,0.921859
977,609,3.30764,-0.0153452,0.274522,0.920042
985,601,3.3088,-0.019298,0.273191,0.918403
993,593,3.30763,-0.0196613,0.273186,0.916964
1001,585,3.30758,-0.0191262,0.273206,0.914623
1009,577,3.30637,-0.0175207,0.27275,0.913068
1017,569,3.30664,-0.014449,0.271862,0.911067
1025,561,3.30762,-0.0154957,0.270075,0.908504
1033,553,3.30616,-0.0175995,0.27052,0.907294
1041,545,3.30661,-0.015073,0.269636,0.905042
1049,537,3.3072,-0.0190957,0.268295,0.903384
1057,529,3.30756,-0.0159221,0.267403,0.90142
1065,521,3.3067,-0.0151471,0.266952,0.899469
1073,513,3.307,-0.0191611,0.266064,0.89762
1081,505,3.30689,-0.0178875,0.265617,0.895815
1089,497,3.30541,-0.0171257,0.265612,0.893631
1097,489,3.30566,-0.021959,0.264273,0.89163
1105,481,3.30626,-0.0130634,0.263827,0.889886
1113,473,3.30384,-0.023741,0.264724,0.888014
1121,465,3.30422,-0.0212049,0.26383,0.88573
1129,457,3.30554,-0.0203426,0.261592,0.882998
1137,449,3.30578,-0.0169111,0.260244,0.881326
1145,441,3.30331,-0.0238533,0.262037,0.879862
1153,433,3.30434,-0.0193866,0.260689,0.877646
1161,425,3.30467,-0.0205178,0.258898,0.874792
1169,417,3.3053,-0.0159782,0.258067,0.872325
1177,409,3.30494,-0.0153075,0.25709,0.870238
1185,401,3.30332,-0.0195186,0.257984,0.869204
1193,393,3.30412,-0.0186991,0.255736,0.86657
1201,385,3.30384,-0.0199789,0.255731,0.864516
1209,377,3.30453,-0.0154502,0.254379,0.862012
1217,369,3.30506,-0.0166056,0.252633,0.859397
1225,361,3.30302,-0.0178116,0.253023,0.857381
1233,353,3.30307,-0.0170971,0.252695,0.855319
1241,345,3.30369,-0.0188629,0.250766,0.85242
1249,337,3.30377,-0.0183911,0.250308,0.850268
1257,329,3.30405,-0.0215112,0.248955,0.847846
1265,321,3.30225,-0.0248613,0.249841,0.845974
1273,313,3.3022,-0.0180841,0.248039,0.843355
1281,305,3.30313,-0.0212072,0.246242,0.841153
1289,297,3.30349,-0.0205593,0.245774,0.839065
1297,289,3.30413,-0.0156128,0.243978,0.836909
1305,281,3.30408,-0.0137578,0.243508,0.834052
1313,273,3.30122,-0.0230341,0.243941,0.832021
1321,265,3.30241,-0.0181293,0.242145,0.82984
1329,257,3.3025,-0.0156068,0.24167,0.82726
1337,249,3.30275,-0.0207447,0.240314,0.825292
1345,241,3.302675,-0.0188642,0.239839,0.822461
1353,233,3.30346,-0.0139332,0.238038,0.820243
1361,225,3.30305,-0.0213505,0.237554,0.818171
1369,217,3.30076,-0.0226422,0.237992,0.81617
1377,209,3.30151,-0.0164331,0.23631,0.8132
1385,201,3.30162,-0.0218813,0.23527,0.810912
1393,193,3.30168,-0.0198651,0.234346,0.808323
1401,185,3.30213,-0.0150095,0.232986,0.805837
1409,177,3.30178,-0.0192575,0.232064,0.802787
1417,169,3.30281,-0.0141969,0.230269,0.800573
1425,161,3.30197,-0.0144442,0.230234,0.7979
1433,153,3.30094,-0.0160459,0.229242,0.79532
1441,145,3.30123,-0.0111012,0.227877,0.792823
1449,137,3.30117,-0.0196069,0.227631,0.79044
1457,129,3.30135,-0.0145047,0.226004,0.787976
1465,121,3.30258,-0.0178149,0.224208,0.78576
1473,113,3.30276,-0.0149855,0.223269,0.783464
1481,105,3.30119,-0.0127765,0.222835,0.780721
1489,97,3.30078,-0.0120936,0.222326,0.778644
1497,89,3.30122,-0.0162745,0.220864,0.77586
1505,81,3.30102,-0.0205052,0.219592,0.773089
1513,73,3.30195,-0.0154787,0.218223,0.77057
1521,65,3.30137,-0.014779,0.217702,0.768492
1529,57,3.30176,-0.0147515,0.21718,0.766162
1537,49,3.30215,-0.0149689,0.214965,0.762821
1545,41,3.30168,-0.0140095,0.214428,0.76081
1553,33,3.30156,-0.0136295,0.2139,0.758603
1561,25,3.30022,-0.0172446,0.213964,0.756555
1569,17,3.29873,-0.0212308,0.213368,0.754161
1577,9,3.29853,-0.0211447,0.212866,0.751864
1583,3,3.29947,-0.0170805,0.211225,0.74973