Folder: MyBatteryML/hust_correlation_analysis/matrices (part 19)

File: HUST_5-6_cycle_feature_matrix.csv
cycle_number,rul,voltage,current,capacity,charge_capacity
1,2462,3.32351,-0.0151173,0.286487,1.02805
13,2450,3.31254,-0.0175557,0.29046,1.01948
25,2438,3.31375,-0.0168796,0.289095,1.01795
37,2426,3.31485,-0.0156606,0.288141,1.01641
49,2414,3.31363,-0.016997,0.288551,1.01547
61,2402,3.31542,-0.0151341,0.287191,1.01453
73,2390,3.31471,-0.0170422,0.287598,1.0133
85,2378,3.31396,-0.0183261,0.287608,1.0112
97,2366,3.31514,-0.0164465,0.286664,1.01152
109,2354,3.3154,-0.0176314,0.286245,1.01118
121,2342,3.31621,-0.0151541,0.2853,1.01028
133,2330,3.3155,-0.0165178,0.285733,1.00942
145,2318,3.31592,-0.0170721,0.285302,1.00935
157,2306,3.31484,-0.0184355,0.28573,1.00846
169,2294,3.31597,-0.0159139,0.284792,1.00761
181,2282,3.3151,-0.0172257,0.285225,1.00676
193,2270,3.31542,-0.0179153,0.285223,1.00642
205,2258,3.31445,-0.0185517,0.285221,1.00609
217,2246,3.31622,-0.0159643,0.283949,1.00548
229,2234,3.31638,-0.0166661,0.283852,1.00513
241,2222,3.31608,-0.0178477,0.283846,1.00453
253,2210,3.31498,-0.0179842,0.284681,1.0042
265,2198,3.31483,-0.0186486,0.284955,1.00209
277,2186,3.31596,-0.0160835,0.283727,1.00272
289,2174,3.31589,-0.0173433,0.283313,1.00238
301,2162,3.31581,-0.0180176,0.283304,1.00202
313,2150,3.31762,-0.0153547,0.28153,1.00173
325,2138,3.31745,-0.0159853,0.281513,1.00136
337,2126,3.31681,-0.017349,0.281948,1.00051
349,2114,3.31641,-0.0180733,0.28195,1.00015
361,2102,3.31763,-0.0154896,0.280581,0.999529
373,2090,3.31772,-0.0167182,0.28058,0.998905
385,2078,3.31698,-0.0174246,0.281003,0.998329
397,2066,3.31609,-0.0188789,0.281432,0.99741
409,2054,3.31779,-0.016248,0.280061,0.996806
421,2042,3.31792,-0.0166998,0.279642,0.996834
433,2030,3.31744,-0.0174049,0.279636,0.996447
445,2018,3.31706,-0.0188015,0.280073,0.995583
457,2006,3.31857,-0.016133,0.2787,0.994991
469,1994,3.31809,-0.017539,0.279134,0.994101
481,1982,3.31759,-0.0181598,0.279114,0.993737
493,1970,3.31737,-0.0188666,0.279112,0.993373
505,1958,3.31955,-0.0160883,0.277256,0.993041
517,1946,3.31837,-0.0169485,0.277741,0.992411
529,1934,3.31866,-0.0182042,0.277745,0.991792
541,1922,3.31771,-0.0188641,0.277742,0.991462
553,1910,3.31948,-0.0161772,0.276377,0.9909
565,1898,3.31967,-0.0169027,0.276367,0.990496
577,1886,3.31881,-0.0182629,0.276802,0.989661
589,1874,3.31812,-0.0190026,0.276787,0.989237
601,1862,3.32011,-0.0169538,0.275527,0.988392
613,1850,3.31931,-0.0176541,0.275435,0.988049
625,1838,3.31879,-0.018998,0.275857,0.987155
637,1826,3.32054,-0.0163625,0.274577,0.986406
649,1814,3.31995,-0.0176342,0.274487,0.98591
661,1802,3.31989,-0.0183132,0.274485,0.985575
673,1790,3.31909,-0.0191121,0.274901,0.984939
685,1778,3.32101,-0.0170692,0.273528,0.984022
697,1766,3.32045,-0.0177005,0.273518,0.983679
709,1754,3.31898,-0.0191439,0.273949,0.982765
721,1742,3.32151,-0.0163797,0.272354,0.982407
733,1730,3.3202,-0.017896,0.272999,0.981249
745,1718,3.31955,-0.0191406,0.272995,0.980618
757,1706,3.321,-0.0165173,0.27203,0.979711
769,1694,3.32036,-0.0178813,0.272038,0.979065
781,1682,3.32049,-0.0178583,0.271606,0.979265
793,1670,3.3201,-0.0192961,0.272042,0.978385
805,1658,3.32174,-0.0172138,0.270662,0.977439
817,1646,3.32096,-0.0178338,0.270659,0.977126
829,1634,3.32057,-0.0186039,0.270641,0.976701
841,1622,3.32261,-0.0165503,0.269706,0.975614
853,1610,3.32126,-0.0179475,0.270111,0.974653
865,1598,3.32069,-0.0193861,0.270121,0.973965
877,1586,3.32258,-0.0167129,0.269166,0.973138
889,1574,3.32137,-0.0180959,0.269585,0.972225
901,1562,3.32079,-0.0194006,0.269585,0.971596
913,1550,3.32322,-0.0166581,0.267779,0.971167
925,1538,3.32146,-0.0180739,0.268616,0.970033
937,1526,3.32148,-0.018797,0.268195,0.969877
949,1514,3.32296,-0.0166984,0.267235,0.968752
961,1502,3.32183,-0.0174851,0.267228,0.968341
973,1490,3.32194,-0.0195647,0.267666,0.96739
985,1478,3.32275,-0.0168277,0.265905,0.966498
997,1466,3.32242,-0.0183461,0.266689,0.965506
1009,1454,3.32119,-0.0179422,0.266692,0.964479
1021,1442,3.32376,-0.0150517,0.264882,0.964118
1033,1430,3.32202,-0.0183996,0.265723,0.96328
1045,1418,3.32361,-0.0185896,0.263504,0.961357
1057,1406,3.32311,-0.0210205,0.264423,0.961225
1069,1394,3.32282,-0.0179044,0.263081,0.959386
1081,1382,3.32329,-0.0228095,0.262126,0.958281
1093,1370,3.32344,-0.0165323,0.262117,0.957872
1105,1358,3.32318,-0.0178624,0.261693,0.957634
1117,1346,3.32349,-0.0211216,0.260726,0.955814
1129,1334,3.32279,-0.0207237,0.260716,0.954724
1141,1322,3.32423,-0.0169869,0.259546,0.953397
1153,1310,3.32272,-0.0183737,0.259753,0.95245
1165,1298,3.32234,-0.0216298,0.260258,0.951924
1177,1286,3.32381,-0.0229899,0.258375,0.9502
1189,1274,3.32243,-0.0244761,0.258788,0.94951
1201,1262,3.32467,-0.0204774,0.256582,0.948643
1213,1250,3.32414,-0.0218693,0.256995,0.947755
1225,1238,3.32371,-0.0197617,0.256584,0.946487
1237,1226,3.32459,-0.0159239,0.255203,0.94514
1249,1214,3.32337,-0.0173473,0.255619,0.944522
1261,1202,3.32473,-0.0223896,0.254645,0.943072
1273,1190,3.32452,-0.0201868,0.253827,0.942045
1285,1178,3.32314,-0.0234488,0.254639,0.941286
1297,1166,3.32547,-0.0158622,0.251968,0.93987
1309,1154,3.32446,-0.0173402,0.252441,0.93892
1321,1142,3.32479,-0.0152783,0.251866,0.937505
1333,1130,3.32459,-0.0202654,0.251466,0.936263
1345,1118,3.32362,-0.0235507,0.252045,0.935673
1357,1106,3.32455,-0.0171642,0.250075,0.934499
1369,1094,3.32403,-0.017416,0.25007,0.933099
1381,1082,3.32528,-0.0207398,0.248687,0.930353
1393,1070,3.32394,-0.0239939,0.249499,0.930994
1405,1058,3.3236,-0.0199903,0.248687,0.929527
1417,1046,3.32442,-0.0204211,0.248127,0.928261
1429,1034,3.32398,-0.0173456,0.247316,0.927617
1441,1022,3.32489,-0.0161323,0.246745,0.925839
1453,1010,3.32292,-0.0255826,0.247547,0.924326
1465,998,3.32375,-0.0216123,0.246647,0.921516
1477,986,3.32281,-0.0238345,0.246576,0.921787
1489,974,3.32417,-0.0162359,0.244779,0.919834
1501,962,3.32496,-0.0200256,0.243012,0.918485
1513,950,3.32313,-0.0217293,0.244187,0.916988
1525,938,3.32221,-0.0222081,0.244191,0.915523
1537,926,3.32314,-0.0200368,0.243266,0.914344
1549,914,3.32167,-0.0184356,0.24313,0.912574
1561,902,3.32284,-0.0189261,0.242619,0.911261
1573,890,3.32212,-0.023156,0.242028,0.90906
1585,878,3.32217,-0.0197314,0.240821,0.907495
1597,866,3.32238,-0.0220417,0.241032,0.906143
1609,854,3.32028,-0.0207105,0.241427,0.904008
1621,842,3.32087,-0.0247566,0.240034,0.902355
1633,830,3.32212,-0.0232719,0.239044,0.90089
1645,818,3.32108,-0.0206364,0.238893,0.898534
1657,806,3.32122,-0.0192669,0.238046,0.896779
1669,794,3.32108,-0.0241216,0.23705,0.89456
1681,782,3.32224,-0.0207799,0.235651,0.892876
1693,770,3.32044,-0.0213302,0.236052,0.891163
1705,758,3.32025,-0.0208336,0.235912,0.888706
1717,746,3.31861,-0.0212782,0.236251,0.887098
1729,734,3.31994,-0.0177143,0.234835,0.885469
1741,722,3.31963,-0.0214801,0.233835,0.882513
1753,710,3.32041,-0.0239152,0.233633,0.881354
1765,698,3.31857,-0.0213458,0.233638,0.878744
1777,686,3.31863,-0.020712,0.233032,0.876647
1789,674,3.31813,-0.0258968,0.232437,0.874165
1801,662,3.31935,-0.0203489,0.230608,0.872334
1813,650,3.31921,-0.0177995,0.229995,0.869778
1825,638,3.31795,-0.0210318,0.230399,0.867958
1837,626,3.31794,-0.0260159,0.229381,0.865981
1849,614,3.31779,-0.0235914,0.228771,0.863402
1861,602,3.31831,-0.0188274,0.227334,0.860957
1873,590,3.31564,-0.0200115,0.228145,0.858751
1885,578,3.31648,-0.0214001,0.227536,0.85707
1897,566,3.31633,-0.0225049,0.226096,0.854238
1909,554,3.31614,-0.0226922,0.225487,0.85182
1921,542,3.31618,-0.0259073,0.224457,0.849168
1933,530,3.31656,-0.0251923,0.223423,0.847312
1945,518,3.31733,-0.0204788,0.221991,0.844841
1957,506,3.3152,-0.021667,0.222396,0.842889
1969,494,3.31501,-0.0197699,0.221765,0.839781
1981,482,3.315,-0.0272625,0.221144,0.839265
1993,470,3.31607,-0.018437,0.220747,0.835813
2005,458,3.31544,-0.0265834,0.218646,0.832457
2017,446,3.31662,-0.0168002,0.21761,0.830955
2029,434,3.31348,-0.0293722,0.218829,0.828554
2041,422,3.31416,-0.0265532,0.217376,0.826526
2053,410,3.31436,-0.0245162,0.216758,0.823707
2065,398,3.3148,-0.0195132,0.215274,0.82127
2077,386,3.3147,-0.027125,0.214634,0.819236
2089,374,3.31446,-0.0266927,0.214392,0.816769
2101,362,3.31473,-0.0223741,0.212927,0.814064
2113,350,3.31303,-0.0237437,0.213337,0.812052
2125,338,3.31232,-0.029479,0.212687,0.809521
2137,326,3.31305,-0.0242025,0.210806,0.807382
2149,314,3.31359,-0.0199971,0.209325,0.80458
2161,302,3.31355,-0.0287288,0.208668,0.802177
2173,290,3.3139,-0.0270681,0.208008,0.80044
2185,278,3.31126,-0.0285728,0.208825,0.798156
2197,266,3.31158,-0.0280155,0.208157,0.795968
2209,254,3.31258,-0.0249034,0.206675,0.793996
2221,242,3.31321,-0.0194861,0.205175,0.791592
2233,230,3.31314,-0.019752,0.204919,0.789119
2245,218,3.31255,-0.0257789,0.204256,0.786317
2257,206,3.31338,-0.0226406,0.202747,0.784308
2269,194,3.3114,-0.0226204,0.202742,0.781826
2281,182,3.31122,-0.0308306,0.202065,0.779745
2293,170,3.31173,-0.0277218,0.200968,0.777472
2305,158,3.31226,-0.0246876,0.199878,0.775191
2317,146,3.31281,-0.0216169,0.199001,0.772901
2329,134,3.31027,-0.0253878,0.199599,0.771068
2341,122,3.31078,-0.0223202,0.198497,0.768777
2353,110,3.31144,-0.030741,0.197401,0.766947
2365,98,3.31172,-0.0228895,0.195867,0.764038
2377,86,3.31252,-0.0219766,0.194752,0.762207
2389,74,3.31328,-0.0189562,0.193651,0.759909
2401,62,3.31042,-0.0295772,0.194048,0.757964
2413,50,3.31114,-0.0298948,0.193345,0.755491
2425,38,3.31182,-0.0242649,0.191826,0.753078
2437,26,3.31239,-0.024887,0.191101,0.751931
2449,14,3.3124,-0.0193599,0.189978,0.748941
2460,3,3.31066,-0.0302556,0.189977,0.747276

File: HUST_5-7_cycle_feature_matrix.csv
cycle_number,rul,voltage,current,capacity,charge_capacity
1,1450,3.32395,-0.0194511,0.278931,1.00051
8,1443,3.31115,-0.0221176,0.284097,0.993678
15,1436,3.3131,-0.0206746,0.282207,0.992753
22,1429,3.31298,-0.0227372,0.282204,0.991831
29,1422,3.31423,-0.0206888,0.280762,0.990911
36,1415,3.31448,-0.0213842,0.280529,0.990562
43,1408,3.31359,-0.0227724,0.280742,0.98991
50,1401,3.31548,-0.0198836,0.279304,0.989357
57,1394,3.31454,-0.0214101,0.279746,0.988425
64,1387,3.31532,-0.0220858,0.279307,0.988388
71,1380,3.31617,-0.0192982,0.27831,0.987556
78,1373,3.31641,-0.0206674,0.278309,0.986928
85,1366,3.31552,-0.021515,0.27831,0.986572
92,1359,3.31528,-0.02208,0.27831,0.986329
99,1352,3.31447,-0.0228476,0.278756,0.985749
106,1345,3.31672,-0.0201442,0.277319,0.985115
113,1338,3.31656,-0.0208155,0.277316,0.984816
120,1331,3.31666,-0.0215306,0.277317,0.984494
127,1324,3.31607,-0.0222031,0.277313,0.984184
134,1317,3.31532,-0.0229693,0.277757,0.983598
141,1310,3.31722,-0.0202323,0.276318,0.982983
148,1303,3.31721,-0.0209032,0.276317,0.982677
155,1296,3.31673,-0.0215622,0.276315,0.982371
162,1289,3.31718,-0.0222689,0.276314,0.98205
169,1282,3.31571,-0.0230243,0.276757,0.981473
176,1275,3.31806,-0.0202395,0.275312,0.980848
183,1268,3.3173,-0.0202916,0.275313,0.980831
190,1261,3.31766,-0.0209589,0.27531,0.980527
197,1254,3.31744,-0.0216271,0.275307,0.980215
204,1247,3.31686,-0.0224994,0.275752,0.979586
211,1240,3.31694,-0.0223587,0.275305,0.979879
218,1233,3.31686,-0.0230071,0.275304,0.979587
225,1226,3.31799,-0.0202686,0.274297,0.978696
232,1219,3.31793,-0.0210984,0.274735,0.97806
239,1212,3.31701,-0.0210708,0.274739,0.978086
246,1205,3.31739,-0.0217532,0.274736,0.97778
253,1198,3.31692,-0.0225195,0.274742,0.977447
260,1191,3.31704,-0.0231011,0.274831,0.977163
267,1184,3.31645,-0.023091,0.274736,0.977162
274,1177,3.31652,-0.0230653,0.274727,0.97713
281,1170,3.31729,-0.0203071,0.274167,0.975983
288,1163,3.31739,-0.0212262,0.274168,0.975567
295,1156,3.31706,-0.0210347,0.27372,0.975903
302,1149,3.3174,-0.0219546,0.274168,0.975248
309,1142,3.31689,-0.0225473,0.273725,0.975267
316,1135,3.31709,-0.023248,0.273727,0.974975
323,1128,3.31877,-0.0203603,0.272277,0.974374
330,1121,3.31842,-0.0211896,0.272724,0.973775
337,1114,3.31776,-0.0218989,0.273001,0.973479
344,1107,3.31757,-0.0226305,0.272732,0.973158
351,1100,3.31659,-0.0232645,0.273164,0.97259
358,1093,3.31865,-0.020536,0.27168,0.971942
365,1086,3.31853,-0.0212747,0.271718,0.971623
372,1079,3.31916,-0.0211911,0.27128,0.971923
379,1072,3.31844,-0.0219411,0.27172,0.971343
386,1065,3.3177,-0.0225853,0.271716,0.971045
393,1058,3.31973,-0.0199049,0.270268,0.970607
400,1051,3.3195,-0.0205707,0.270265,0.970053
407,1044,3.31895,-0.0213461,0.271203,0.969451
414,1037,3.31859,-0.022061,0.270965,0.969141
421,1030,3.31848,-0.0228208,0.270706,0.968798
428,1023,3.31794,-0.0234958,0.270707,0.968495
435,1016,3.32017,-0.020624,0.269253,0.968141
442,1009,3.31959,-0.020642,0.269512,0.96789
449,1002,3.3197,-0.0221343,0.269698,0.966997
456,995,3.31896,-0.0221234,0.269966,0.966995
463,988,3.31931,-0.0227451,0.269252,0.966937
470,981,3.31848,-0.0235899,0.269688,0.966303
477,974,3.32026,-0.0207119,0.268241,0.965727
484,967,3.31968,-0.0215507,0.26868,0.965105
491,960,3.32001,-0.022187,0.268236,0.965051
498,953,3.3192,-0.0229052,0.268676,0.964472
505,946,3.31836,-0.0236134,0.268677,0.964163
512,939,3.32083,-0.0207306,0.26722,0.963553
519,932,3.3201,-0.0215094,0.267656,0.962946
526,925,3.32005,-0.0222804,0.267656,0.962846
533,918,3.3196,-0.0229572,0.267653,0.962293
540,911,3.31891,-0.0236997,0.267649,0.961941
547,904,3.32069,-0.0208764,0.266632,0.961056
554,897,3.32084,-0.0214861,0.26619,0.961019
561,890,3.32023,-0.0223105,0.266636,0.960432
568,883,3.31937,-0.0230989,0.266638,0.960084
575,876,3.3197,-0.0238496,0.266637,0.959741
582,869,3.32103,-0.0208303,0.265177,0.95918
589,862,3.3207,-0.0224939,0.265622,0.958213
596,855,3.32027,-0.0231589,0.26562,0.957709
603,848,3.31983,-0.023877,0.266115,0.957574
610,841,3.3216,-0.0210433,0.26485,0.956697
617,834,3.32099,-0.0218208,0.264597,0.956339
624,827,3.32069,-0.0232161,0.264597,0.955718
631,820,3.32012,-0.0240587,0.265035,0.955092
638,813,3.32135,-0.021112,0.26357,0.954485
645,806,3.32098,-0.0226264,0.264014,0.953571
652,799,3.32044,-0.0232929,0.264013,0.953273
659,792,3.32213,-0.0211091,0.262634,0.952328
666,785,3.32235,-0.0218975,0.262542,0.95195
673,778,3.32019,-0.0227271,0.263426,0.951116
680,771,3.31981,-0.0241772,0.263425,0.950453
687,764,3.32221,-0.0213444,0.261953,0.949783
694,757,3.32067,-0.0228034,0.262392,0.948882
701,750,3.32112,-0.0234998,0.26195,0.948797
708,743,3.32201,-0.0214249,0.261361,0.947312
715,736,3.32107,-0.0221117,0.261359,0.946997
722,729,3.32088,-0.0237152,0.261797,0.946009
729,722,3.32223,-0.0207642,0.26082,0.945387
736,715,3.3219,-0.0222459,0.260324,0.944735
743,708,3.32123,-0.0237929,0.260765,0.943804
750,701,3.32211,-0.0216108,0.259735,0.94259
757,694,3.32084,-0.0224153,0.260176,0.941982
764,687,3.32069,-0.0239808,0.260179,0.94131
771,680,3.32216,-0.021644,0.259148,0.940169
778,673,3.32122,-0.0231442,0.259146,0.939292
785,666,3.32011,-0.0247278,0.259588,0.938543
792,659,3.32233,-0.0225648,0.258112,0.937562
799,652,3.32052,-0.0241123,0.259001,0.936404
806,645,3.32234,-0.0225993,0.257782,0.935117
813,638,3.3209,-0.0233481,0.258224,0.934531
820,631,3.32261,-0.021132,0.256469,0.933514
827,624,3.32239,-0.0227495,0.256912,0.932551
834,617,3.32072,-0.0232113,0.257362,0.9309
841,610,3.32158,-0.022852,0.256318,0.930071
848,603,3.32029,-0.0302346,0.256317,0.929002
855,596,3.32199,-0.0222862,0.255275,0.928119
862,589,3.32147,-0.0283022,0.25483,0.926697
869,582,3.32205,-0.0242376,0.253782,0.925056
876,575,3.32106,-0.0246511,0.25378,0.923648
883,568,3.32259,-0.0202024,0.251838,0.922629
890,561,3.32054,-0.0304292,0.252727,0.921099
897,554,3.32236,-0.0261668,0.250788,0.92001
904,547,3.32196,-0.0245579,0.25034,0.918471
911,540,3.32382,-0.0201273,0.248411,0.917476
918,533,3.32142,-0.0305023,0.249299,0.91591
925,526,3.32278,-0.0270492,0.247803,0.914212
932,519,3.32081,-0.0267017,0.248243,0.912914
939,512,3.32301,-0.0231409,0.246307,0.911502
946,505,3.32374,-0.0217254,0.245253,0.909918
953,498,3.32288,-0.0279145,0.244814,0.908429
960,491,3.32359,-0.026503,0.244445,0.905218
967,484,3.32264,-0.0248235,0.243822,0.905091
974,477,3.32304,-0.0234777,0.243128,0.903262
981,470,3.32144,-0.0317616,0.243123,0.901876
988,463,3.32193,-0.0303017,0.242495,0.900078
995,456,3.32396,-0.0227306,0.239688,0.898341
1002,449,3.32218,-0.0250952,0.240209,0.897099
1009,442,3.32287,-0.0216107,0.239048,0.895149
1016,435,3.32101,-0.0321433,0.239479,0.893849
1023,428,3.32287,-0.0244045,0.237111,0.891926
1030,421,3.32476,-0.0207062,0.235182,0.890529
1037,414,3.32211,-0.0311231,0.236033,0.889044
1044,407,3.32312,-0.0285038,0.234959,0.886736
1051,400,3.32461,-0.0229277,0.23303,0.884896
1058,393,3.32261,-0.0322193,0.233452,0.882911
1065,386,3.32303,-0.0287212,0.232376,0.880962
1072,379,3.32438,-0.0259682,0.230877,0.878956
1079,372,3.32462,-0.0224154,0.229792,0.876993
1086,365,3.32326,-0.0316623,0.229786,0.875296
1093,358,3.32436,-0.0259502,0.227851,0.873461
1100,351,3.32415,-0.0253187,0.227189,0.871317
1107,344,3.32264,-0.026558,0.227612,0.869346
1114,337,3.32376,-0.0290669,0.225682,0.867512
1121,330,3.32343,-0.0281984,0.225009,0.865453
1128,323,3.32404,-0.0256049,0.223915,0.863098
1135,316,3.32183,-0.0268647,0.224332,0.861115
1142,309,3.32228,-0.0323103,0.222813,0.859099
1149,302,3.32253,-0.0274432,0.221711,0.856356
1156,295,3.32336,-0.0225025,0.220192,0.853981
1163,288,3.32352,-0.0301713,0.219506,0.851862
1170,281,3.32182,-0.0314765,0.219503,0.850104
1177,274,3.3222,-0.0285052,0.218396,0.847879
1184,267,3.32337,-0.0234989,0.21645,0.845679
1191,260,3.32213,-0.0313054,0.216166,0.843287
1198,253,3.32338,-0.0250502,0.214228,0.840369
1205,246,3.32379,-0.0220329,0.213111,0.838133
1212,239,3.32328,-0.0220887,0.212815,0.835432
1219,232,3.32083,-0.0299523,0.212808,0.833239
1226,225,3.32186,-0.0269556,0.211267,0.831232
1233,218,3.32208,-0.033424,0.210144,0.828684
1240,211,3.32171,-0.0285519,0.208712,0.825913
1247,204,3.32329,-0.0232648,0.207064,0.823773
1254,197,3.32249,-0.0317259,0.206516,0.821459
1261,190,3.32187,-0.0290864,0.20561,0.818813
1268,183,3.32277,-0.0229514,0.204068,0.815515
1275,176,3.32231,-0.0228631,0.203333,0.813136
1282,169,3.32308,-0.0286551,0.201776,0.811113
1289,162,3.32227,-0.0288208,0.201438,0.808403
1296,155,3.32048,-0.02801,0.200981,0.806241
1303,148,3.32007,-0.0281707,0.200691,0.803787
1310,141,3.32092,-0.0327251,0.199125,0.801038
1317,134,3.32087,-0.0282046,0.197556,0.798291
1324,127,3.32075,-0.035187,0.196798,0.795419
1331,120,3.31996,-0.0307906,0.195629,0.792371
1338,113,3.32089,-0.027717,0.194211,0.790329
1345,106,3.32102,-0.0346032,0.192878,0.787962
1352,99,3.32094,-0.0324586,0.1917,0.785138
1359,92,3.32181,-0.0278514,0.19027,0.782384
1366,85,3.32117,-0.0257593,0.18936,0.779482
1373,78,3.32078,-0.0329706,0.18815,0.776847
1380,71,3.32228,-0.0306463,0.18656,0.774522
1387,64,3.32187,-0.0355285,0.185366,0.771479
1394,57,3.32152,-0.035539,0.184562,0.769093
1401,50,3.32081,-0.033496,0.183754,0.76615
1408,43,3.32217,-0.0287224,0.181764,0.763685
1415,36,3.32213,-0.0369291,0.180557,0.760784
1422,29,3.32223,-0.0321878,0.179341,0.757775
1429,22,3.32206,-0.0325946,0.178514,0.755243
1436,15,3.32219,-0.0277923,0.176901,0.752488
1443,8,3.32145,-0.0386585,0.176066,0.749721
1448,3,3.3234,-0.0328312,0.174065,0.747561