Folder: MyBatteryML/hust_correlation_analysis/matrices (part 26)

File: HUST_7-6_cycle_feature_matrix.csv
cycle_number,rul,voltage,current,capacity,charge_capacity
1,1421,3.31166,-0.0088175,0.309987,1.02567
8,1414,3.30142,-0.011012,0.314236,1.01997
15,1407,3.30178,-0.0126779,0.313806,1.01915
22,1400,3.30286,-0.0109902,0.312865,1.0182
29,1393,3.30258,-0.0115526,0.311807,1.01789
36,1386,3.30204,-0.0128405,0.312584,1.01693
43,1379,3.302,-0.0133825,0.312132,1.01669
50,1372,3.30364,-0.0110834,0.310975,1.01612
57,1365,3.30353,-0.0122359,0.310967,1.01541
64,1358,3.30317,-0.0128438,0.310962,1.01503
71,1351,3.30461,-0.0106124,0.309824,1.01448
78,1344,3.30492,-0.0116146,0.30982,1.01387
85,1337,3.30498,-0.0122108,0.309813,1.01348
92,1330,3.30464,-0.0128461,0.309822,1.01312
99,1323,3.30422,-0.0133585,0.30984,1.01286
106,1316,3.30573,-0.0110704,0.308651,1.0122
113,1309,3.30577,-0.0115992,0.308656,1.0119
120,1302,3.30528,-0.0122605,0.309089,1.01138
127,1295,3.30496,-0.0128343,0.3093,1.01099
134,1288,3.30496,-0.0133657,0.309068,1.01063
141,1281,3.30581,-0.0110845,0.308339,1.00991
148,1274,3.30561,-0.0117014,0.308343,1.00953
155,1267,3.30544,-0.0117718,0.30834,1.00975
162,1260,3.30533,-0.0122211,0.308343,1.00923
169,1253,3.30523,-0.0128371,0.308572,1.00864
176,1246,3.30491,-0.0134381,0.308338,1.00847
183,1239,3.30625,-0.0111663,0.307743,1.00766
190,1232,3.30638,-0.0111308,0.307151,1.00779
197,1225,3.30613,-0.0116778,0.307569,1.00732
204,1218,3.30658,-0.0123036,0.307568,1.00694
211,1211,3.30675,-0.0122602,0.307157,1.00715
218,1204,3.30637,-0.0128105,0.307163,1.00682
225,1197,3.30562,-0.0129751,0.307556,1.00649
232,1190,3.30541,-0.0132001,0.307528,1.00626
239,1183,3.30441,-0.0148704,0.307923,1.00616
246,1176,3.30654,-0.012766,0.307181,1.00542
253,1169,3.30579,-0.0127668,0.307182,1.0054
260,1162,3.30601,-0.0123532,0.306803,1.00464
267,1155,3.30556,-0.0124291,0.307013,1.00457
274,1148,3.30539,-0.0130568,0.306901,1.00418
281,1141,3.30521,-0.0136334,0.306802,1.00389
288,1134,3.30691,-0.0112329,0.305634,1.00335
295,1127,3.30661,-0.0112212,0.305636,1.00333
302,1120,3.30628,-0.0119215,0.305639,1.00292
309,1113,3.3066,-0.0124493,0.305648,1.00264
316,1106,3.3067,-0.0130043,0.305636,1.00226
323,1099,3.30672,-0.0135596,0.305636,1.00192
330,1092,3.30765,-0.0112322,0.304918,1.00123
337,1085,3.30772,-0.0118278,0.304893,1.00107
344,1078,3.30793,-0.0117998,0.304468,1.00097
351,1071,3.30784,-0.0123394,0.304493,1.0007
358,1064,3.30726,-0.0130386,0.304991,1.00014
365,1057,3.30708,-0.0136198,0.304914,0.999771
372,1050,3.30844,-0.0112135,0.303746,0.999209
379,1043,3.30855,-0.011158,0.303758,0.99929
386,1036,3.30797,-0.0117876,0.30407,0.998696
393,1029,3.30762,-0.0118914,0.304148,0.998582
400,1022,3.30703,-0.0130724,0.304592,0.997786
407,1015,3.30665,-0.0136608,0.304603,0.997448
414,1008,3.30872,-0.0106563,0.303006,0.997378
421,1001,3.30853,-0.0112173,0.303082,0.997048
428,994,3.30847,-0.0117831,0.303011,0.998027
435,987,3.3081,-0.0118612,0.302982,0.996581
442,980,3.30794,-0.0124572,0.302929,0.996191
449,973,3.30816,-0.0130234,0.302972,0.995846
456,966,3.30802,-0.0136612,0.302967,0.99543
463,959,3.30917,-0.0113015,0.302214,0.994658
470,952,3.30938,-0.011816,0.301808,0.994548
477,945,3.30918,-0.0123354,0.301813,0.994234
484,938,3.30879,-0.0131152,0.302227,0.993574
491,931,3.30841,-0.0136695,0.302229,0.99328
498,924,3.30949,-0.0111323,0.301494,0.992659
505,917,3.30967,-0.0112331,0.301059,0.992927
512,910,3.30857,-0.0119663,0.301459,0.992032
519,903,3.30834,-0.0131775,0.301905,0.991235
526,896,3.30845,-0.0136942,0.301479,0.991038
533,889,3.30766,-0.0136853,0.301476,0.991018
540,882,3.3092,-0.011969,0.300743,0.989925
547,875,3.3091,-0.0125051,0.300746,0.98987
554,868,3.309,-0.0131322,0.300738,0.989219
561,861,3.30891,-0.0137696,0.300734,0.988809
568,854,3.31064,-0.0111325,0.299567,0.988359
575,847,3.30997,-0.0119826,0.299989,0.987683
582,840,3.31044,-0.0124679,0.299566,0.987536
589,833,3.31014,-0.0130742,0.299563,0.98713
596,826,3.30971,-0.0136846,0.29956,0.986762
603,819,3.31088,-0.0112861,0.298798,0.985974
610,812,3.31049,-0.0119087,0.298801,0.985848
617,805,3.31027,-0.0125464,0.298903,0.985188
624,798,3.30984,-0.0137617,0.29928,0.984287
631,791,3.31163,-0.0107235,0.297626,0.984232
638,784,3.31048,-0.0119926,0.298475,0.983172
645,777,3.30998,-0.0125489,0.29847,0.982832
652,770,3.30967,-0.0131593,0.298537,0.982432
659,763,3.31036,-0.0115396,0.298141,0.98108
666,756,3.31048,-0.0120016,0.297744,0.980933
673,749,3.30972,-0.0132942,0.298149,0.978495
680,742,3.30905,-0.0138422,0.298126,0.979632
687,735,3.30998,-0.0115779,0.297355,0.978962
694,728,3.31041,-0.0120617,0.297172,0.978629
701,721,3.30974,-0.0133866,0.297361,0.977613
708,714,3.30951,-0.0140117,0.297359,0.977223
715,707,3.3104,-0.0121532,0.296614,0.976133
722,700,3.31011,-0.0127888,0.296622,0.975788
729,693,3.30959,-0.0140254,0.296624,0.975015
736,686,3.311,-0.0121525,0.295867,0.973915
743,679,3.31058,-0.0128151,0.295873,0.973503
750,672,3.3099,-0.0141494,0.296275,0.972483
757,665,3.31111,-0.011846,0.295136,0.971883
764,658,3.31051,-0.0133399,0.295544,0.970561
771,651,3.30985,-0.0140681,0.295539,0.970323
778,644,3.31092,-0.0123623,0.294792,0.969139
785,637,3.3107,-0.0134824,0.294806,0.968498
792,630,3.31192,-0.0116371,0.294062,0.967384
799,623,3.31084,-0.012871,0.294675,0.966452
806,616,3.31185,-0.0110872,0.293732,0.965284
813,609,3.3109,-0.0123699,0.294162,0.964373
820,602,3.30991,-0.0135804,0.294567,0.963438
827,595,3.31059,-0.011727,0.293809,0.962271
834,588,3.30945,-0.0130528,0.294234,0.961312
841,581,3.31042,-0.0118666,0.293487,0.959731
848,574,3.30974,-0.0131003,0.293463,0.958905
855,567,3.30865,-0.0138831,0.29388,0.958267
862,560,3.30984,-0.0124934,0.293134,0.956855
869,553,3.30904,-0.0144669,0.293564,0.955503
876,546,3.31047,-0.0125282,0.292389,0.954548
883,539,3.30983,-0.0144324,0.292823,0.953298
890,532,3.31079,-0.0126218,0.292086,0.952123
897,525,3.30988,-0.0144602,0.292067,0.950953
904,518,3.31044,-0.0131794,0.291726,0.949227
911,511,3.31148,-0.0119675,0.291475,0.947737
918,504,3.31014,-0.0133506,0.291433,0.946748
925,497,3.31095,-0.0103819,0.290245,0.945099
932,490,3.30912,-0.013434,0.291107,0.944219
939,483,3.30929,-0.0106838,0.290366,0.942309
946,476,3.30805,-0.0164094,0.290358,0.940278
953,469,3.30919,-0.0134677,0.289177,0.938607
960,462,3.31095,-0.0154032,0.28715,0.937027
967,455,3.30953,-0.0162865,0.287568,0.935066
974,448,3.31034,-0.0118529,0.285954,0.933142
981,441,3.31101,-0.0105566,0.285207,0.931638
988,434,3.31072,-0.0155799,0.284372,0.930377
995,427,3.31115,-0.0126871,0.283605,0.928731
1002,420,3.3119,-0.0170438,0.282423,0.926365
1009,413,3.30996,-0.0174325,0.282834,0.924697
1016,406,3.31074,-0.0144977,0.281671,0.92303
1023,399,3.31196,-0.0105004,0.28007,0.922185
1030,392,3.30952,-0.0192519,0.280906,0.919276
1037,385,3.31022,-0.0185851,0.280169,0.917439
1044,378,3.31071,-0.0145986,0.278998,0.915088
1051,371,3.31117,-0.0100068,0.277816,0.913083
1058,364,3.30985,-0.0175033,0.277813,0.911311
1065,357,3.30954,-0.0153601,0.277497,0.908903
1072,350,3.31012,-0.0114284,0.276326,0.906491
1079,343,3.31058,-0.015667,0.27514,0.904498
1086,336,3.31106,-0.0117516,0.273966,0.90207
1093,329,3.30952,-0.0194652,0.27397,0.900242
1100,322,3.30992,-0.0153768,0.272786,0.897878
1107,315,3.31099,-0.0130052,0.271625,0.895848
1114,308,3.31113,-0.0164386,0.270463,0.893113
1121,301,3.31162,-0.0124347,0.269649,0.890708
1128,294,3.31236,-0.0100348,0.268126,0.88844
1135,287,3.30976,-0.0186109,0.268948,0.886062
1142,280,3.31078,-0.0144829,0.267385,0.883938
1149,273,3.31076,-0.0195631,0.266632,0.881376
1156,266,3.31088,-0.0173297,0.265876,0.87908
1163,259,3.31088,-0.0149983,0.265124,0.87685
1170,252,3.31153,-0.0166538,0.263551,0.873985
1177,245,3.31138,-0.0160171,0.263212,0.87194
1184,238,3.31155,-0.0126358,0.262045,0.86913
1191,231,3.31132,-0.0102338,0.261287,0.866892
1198,224,3.30899,-0.0188881,0.261703,0.864504
1205,217,3.30858,-0.0148431,0.260933,0.861874
1212,210,3.30886,-0.0182592,0.259768,0.859166
1219,203,3.3102,-0.0147645,0.258206,0.856568
1226,196,3.31006,-0.0131559,0.257879,0.85385
1233,189,3.30965,-0.017769,0.257118,0.851613
1240,182,3.30901,-0.016071,0.256355,0.848939
1247,175,3.3087,-0.0124719,0.255601,0.844549
1254,168,3.30965,-0.0142616,0.254046,0.843176
1261,161,3.30988,-0.0126085,0.253297,0.840532
1268,154,3.30935,-0.0180003,0.252536,0.837896
1275,147,3.30884,-0.0155374,0.251778,0.835669
1282,140,3.30804,-0.0145697,0.251863,0.832391
1289,133,3.3093,-0.0162374,0.249877,0.829667
1296,126,3.30945,-0.0126717,0.248711,0.826872
1303,119,3.30835,-0.01998,0.248788,0.824324
1310,112,3.30756,-0.0184216,0.248476,0.821535
1317,105,3.30858,-0.0135389,0.246891,0.818253
1324,98,3.30797,-0.0192166,0.246556,0.815441
1331,91,3.30728,-0.019298,0.246118,0.813021
1338,84,3.30728,-0.013686,0.245069,0.810003
1345,77,3.30961,-0.0163583,0.243155,0.80682
1352,70,3.30967,-0.0126156,0.241994,0.804071
1359,63,3.30856,-0.0182608,0.241654,0.8013
1366,56,3.30972,-0.0135063,0.240113,0.798026
1373,49,3.3087,-0.0198705,0.239755,0.794863
1380,42,3.30788,-0.0180347,0.239411,0.792125
1387,35,3.30964,-0.0131679,0.237428,0.788897
1394,28,3.30776,-0.0151825,0.237922,0.786534
1401,21,3.30796,-0.0170581,0.236334,0.783268
1408,14,3.30755,-0.0160381,0.235976,0.780336
1415,7,3.30691,-0.014108,0.235225,0.777743
1419,3,3.30746,-0.0183903,0.234439,0.775871

File: HUST_7-7_cycle_feature_matrix.csv
cycle_number,rul,voltage,current,capacity,charge_capacity
1,1687,3.32037,-0.00534408,0.278605,1.03717
9,1679,3.30357,-0.00805367,0.309246,1.01866
17,1671,3.30326,-0.009769,0.308853,1.01783
25,1663,3.30473,-0.00804973,0.307549,1.01691
33,1655,3.30457,-0.00922604,0.307109,1.01633
41,1647,3.30413,-0.00990743,0.307099,1.0159
49,1639,3.30587,-0.00811041,0.305909,1.01498
57,1631,3.30562,-0.00871075,0.305907,1.01464
65,1623,3.30552,-0.00988058,0.305906,1.01393
73,1615,3.3069,-0.0075506,0.304725,1.01336
81,1607,3.30651,-0.00812088,0.304726,1.01302
89,1599,3.30582,-0.00879391,0.305137,1.01244
97,1591,3.30595,-0.0099419,0.305147,1.0118
105,1583,3.30742,-0.0075841,0.303952,1.01119
113,1575,3.30677,-0.0082046,0.304365,1.01063
121,1567,3.30713,-0.0086933,0.303957,1.01053
129,1559,3.30726,-0.00929599,0.303954,1.01016
137,1551,3.30648,-0.00995543,0.304358,1.00957
145,1543,3.30797,-0.00754012,0.303182,1.00905
153,1535,3.30807,-0.008159,0.303185,1.00869
161,1527,3.30784,-0.00871714,0.303178,1.00834
169,1519,3.30751,-0.00931108,0.303596,1.00782
177,1511,3.30744,-0.00928603,0.303177,1.00799
185,1503,3.30675,-0.00999434,0.303584,1.00738
193,1495,3.30833,-0.00754696,0.302398,1.00681
201,1487,3.30825,-0.00754591,0.302396,1.00683
209,1479,3.30803,-0.00817675,0.302386,1.00643
217,1471,3.30809,-0.00878632,0.302398,1.00611
225,1463,3.30799,-0.00934129,0.302662,1.00556
233,1455,3.30731,-0.00946156,0.302796,1.00572
241,1447,3.3077,-0.00942499,0.302772,1.00541
249,1439,3.30703,-0.0100412,0.302785,1.0036
257,1431,3.30871,-0.00770345,0.301594,1.00445
265,1423,3.30829,-0.00827644,0.301615,1.00418
273,1415,3.30838,-0.00883069,0.301605,1.00383
281,1407,3.30785,-0.00884993,0.301315,1.00383
289,1399,3.30832,-0.00936806,0.301201,1.00398
297,1391,3.30779,-0.010065,0.301613,1.00313
305,1383,3.30931,-0.00709418,0.30042,1.00288
313,1375,3.30971,-0.00751635,0.300013,1.00282
321,1367,3.30935,-0.00821057,0.300424,1.00222
329,1359,3.30931,-0.00879431,0.300415,1.00034
337,1351,3.30877,-0.00947546,0.300844,1.00131
345,1343,3.30898,-0.0094211,0.300427,1.00151
353,1335,3.30841,-0.0101476,0.300843,1.0009
361,1327,3.31071,-0.00749544,0.299253,1.00067
369,1319,3.31018,-0.00800839,0.299924,1.0002
377,1311,3.3103,-0.00884221,0.299656,0.999675
385,1303,3.31009,-0.00938307,0.299669,0.99937
393,1295,3.30965,-0.00942328,0.29966,0.999323
401,1287,3.30939,-0.010042,0.299658,0.998962
409,1279,3.31066,-0.00762616,0.29889,0.997998
417,1271,3.31055,-0.00826503,0.298891,0.997828
425,1263,3.31034,-0.00886192,0.298893,0.99747
433,1255,3.30982,-0.00944693,0.299303,0.998246
441,1247,3.30973,-0.00941451,0.298872,0.997082
449,1239,3.30923,-0.0100864,0.299293,0.996537
457,1231,3.31081,-0.00761712,0.298092,0.995957
465,1223,3.30996,-0.00827683,0.298507,0.995377
473,1215,3.30987,-0.00886089,0.298502,0.995027
481,1207,3.30963,-0.0095387,0.298776,0.994652
489,1199,3.3094,-0.0100976,0.298508,0.994288
497,1191,3.31118,-0.00768465,0.297335,0.993743
505,1183,3.311,-0.00831405,0.297328,0.993354
513,1175,3.31019,-0.0083635,0.297321,0.993299
521,1167,3.31021,-0.00887575,0.297314,0.992982
529,1159,3.31018,-0.00951358,0.297322,0.992632
537,1151,3.30929,-0.0101832,0.297735,0.992043
545,1143,3.31134,-0.00766871,0.296552,0.991545
553,1135,3.31109,-0.00824215,0.296557,0.991185
561,1127,3.3108,-0.00886636,0.296547,0.990798
569,1119,3.31027,-0.00955225,0.296954,0.990202
577,1111,3.31006,-0.0101481,0.29703,0.988398
585,1103,3.31165,-0.00770514,0.295773,0.989268
593,1095,3.31176,-0.00826017,0.29577,0.988929
601,1087,3.31131,-0.00892729,0.295764,0.988763
609,1079,3.31123,-0.00953676,0.295761,0.988122
617,1071,3.31057,-0.010231,0.296169,0.987549
625,1063,3.312,-0.00770914,0.294978,0.986799
633,1055,3.31184,-0.00836887,0.294982,0.986605
641,1047,3.31173,-0.00898921,0.294977,0.986225
649,1039,3.31154,-0.00960021,0.294986,0.985882
657,1031,3.31109,-0.010137,0.294983,0.985555
665,1023,3.31235,-0.00777091,0.294209,0.984751
673,1015,3.31211,-0.00827257,0.294269,0.984438
681,1007,3.31148,-0.00954273,0.294622,0.98352
689,999,3.31091,-0.00952756,0.294608,0.983491
697,991,3.31067,-0.0102734,0.29461,0.983034
705,983,3.31186,-0.00834076,0.293837,0.981967
713,975,3.31168,-0.00887454,0.29381,0.981376
721,967,3.3109,-0.00966934,0.294245,0.981005
729,959,3.31253,-0.00769957,0.293135,0.980131
737,951,3.31236,-0.00845912,0.292971,0.979692
745,943,3.31187,-0.00906793,0.29305,0.979298
753,935,3.31091,-0.00961364,0.293459,0.978782
761,927,3.31249,-0.0072982,0.292278,0.978116
769,919,3.31202,-0.00847194,0.292709,0.977307
777,911,3.31165,-0.0091052,0.292703,0.976912
785,903,3.31132,-0.0103672,0.2927,0.976119
793,895,3.3126,-0.00849439,0.291934,0.97503
801,887,3.3122,-0.00905087,0.291939,0.974712
809,879,3.31109,-0.0104822,0.292844,0.973528
817,871,3.3126,-0.00784331,0.291573,0.973007
825,863,3.31195,-0.00919626,0.291993,0.972027
833,855,3.31134,-0.00980939,0.291991,0.971646
841,847,3.31233,-0.00786118,0.291199,0.970524
849,839,3.3118,-0.00921281,0.291623,0.969556
857,831,3.3118,-0.00975314,0.291191,0.969365
865,823,3.31309,-0.00798508,0.290417,0.968163
873,815,3.31231,-0.00919428,0.29084,0.967288
881,807,3.31189,-0.00984487,0.290839,0.966914
889,799,3.31297,-0.00798909,0.290066,0.965775
897,791,3.3123,-0.00924336,0.290486,0.964861
905,783,3.31177,-0.0105566,0.290484,0.964056
913,775,3.31292,-0.0087234,0.2897,0.962855
921,767,3.312,-0.00997508,0.290133,0.961984
929,759,3.31305,-0.00809844,0.289356,0.960817
937,751,3.31245,-0.00866007,0.289345,0.960455
945,743,3.3111,-0.0100562,0.289769,0.959479
953,735,3.3122,-0.00867575,0.288995,0.958021
961,727,3.31145,-0.0100733,0.289424,0.957025
969,719,3.31211,-0.00813406,0.289074,0.955724
977,711,3.31172,-0.00949443,0.289069,0.954925
985,703,3.31128,-0.0107205,0.289067,0.954164
993,695,3.31274,-0.00882524,0.288299,0.953047
1001,687,3.31149,-0.0101283,0.288724,0.952094
1009,679,3.31197,-0.00826247,0.287934,0.950869
1017,671,3.3112,-0.0102358,0.288361,0.949559
1025,663,3.31173,-0.0083114,0.287582,0.948369
1033,655,3.31087,-0.0095285,0.288006,0.947476
1041,647,3.31251,-0.00759622,0.286807,0.946514
1049,639,3.31164,-0.00957609,0.287234,0.94518
1057,631,3.31267,-0.00759055,0.286461,0.944027
1065,623,3.3109,-0.00966167,0.287325,0.942503
1073,615,3.3117,-0.00763621,0.28655,0.941381
1081,607,3.31107,-0.00964636,0.286981,0.940028
1089,599,3.31229,-0.0077455,0.285766,0.938978
1097,591,3.31091,-0.00972711,0.28664,0.937499
1105,583,3.31135,-0.00843086,0.285855,0.935921
1113,575,3.31027,-0.0097461,0.286292,0.934978
1121,567,3.3113,-0.01347,0.285082,0.933343
1129,559,3.30991,-0.0139301,0.285516,0.931653
1137,551,3.3109,-0.0124516,0.284295,0.93034
1145,543,3.30948,-0.0129453,0.284739,0.928646
1153,535,3.31095,-0.00807307,0.28309,0.926955
1161,527,3.31119,-0.0136415,0.282745,0.925207
1169,519,3.31021,-0.0122264,0.282312,0.923653
1177,511,3.31071,-0.00919036,0.281093,0.921982
1185,503,3.30939,-0.0163598,0.281589,0.920362
1193,495,3.31118,-0.0115606,0.279434,0.91872
1201,487,3.31163,-0.00858079,0.278659,0.916847
1209,479,3.31034,-0.0105087,0.278649,0.915728
1217,471,3.31099,-0.00755659,0.277872,0.913837
1225,463,3.31191,-0.0101825,0.276665,0.911611
1233,455,3.31081,-0.0105982,0.276665,0.91011
1241,447,3.31111,-0.0143689,0.27545,0.908454
1249,439,3.31132,-0.0130858,0.27464,0.906862
1257,431,3.30972,-0.0123202,0.275104,0.904621
1265,423,3.31114,-0.0151857,0.273461,0.902416
1273,415,3.31124,-0.0121302,0.272676,0.900543
1281,407,3.30973,-0.0130977,0.272674,0.89872
1289,399,3.30943,-0.0125134,0.272762,0.896455
1297,391,3.31087,-0.0145454,0.270691,0.894875
1305,383,3.31152,-0.0122345,0.269921,0.892618
1313,375,3.3117,-0.00958485,0.269136,0.890506
1321,367,3.3097,-0.0107636,0.269563,0.888413
1329,359,3.30975,-0.0136413,0.268785,0.885901
1337,351,3.31089,-0.0112136,0.267574,0.883828
1345,343,3.31099,-0.00876503,0.266797,0.881606
1353,335,3.30866,-0.0116235,0.267646,0.879684
1361,327,3.30961,-0.0126227,0.266009,0.877262
1369,319,3.30992,-0.0103634,0.265232,0.874952
1377,311,3.31026,-0.00765107,0.264026,0.873235
1385,303,3.30947,-0.0142386,0.264093,0.870692
1393,295,3.30953,-0.0106285,0.263614,0.867964
1401,287,3.30854,-0.0153346,0.262444,0.865659
1409,279,3.30863,-0.0145692,0.261654,0.864017
1417,271,3.30886,-0.0103057,0.260879,0.861206
1425,263,3.30903,-0.0158282,0.260094,0.858589
1433,255,3.30857,-0.0151556,0.25974,0.85649
1441,247,3.30824,-0.0127228,0.259385,0.854049
1449,239,3.30923,-0.00907256,0.258183,0.851334
1457,231,3.3089,-0.0144627,0.25739,0.848793
1465,223,3.30893,-0.0101327,0.256179,0.846368
1473,215,3.30923,-0.0065047,0.255125,0.843616
1481,207,3.30582,-0.0176198,0.256243,0.841199
1489,199,3.30664,-0.0130938,0.255016,0.838828
1497,191,3.30718,-0.0113528,0.254232,0.836161
1505,183,3.30643,-0.0106928,0.253878,0.834032
1513,175,3.3069,-0.0126605,0.252662,0.829458
1521,167,3.30681,-0.0107496,0.251878,0.828397
1529,159,3.30674,-0.0081421,0.251102,0.826156
1537,151,3.30693,-0.0138639,0.250322,0.823574
1545,143,3.30569,-0.0140496,0.250435,0.820889
1553,135,3.30679,-0.00819313,0.248744,0.818037
1561,127,3.30586,-0.0158781,0.248503,0.815397
1569,119,3.3067,-0.0120409,0.247177,0.812876
1577,111,3.30644,-0.0101783,0.246396,0.810238
1585,103,3.30639,-0.0141039,0.245602,0.807316
1593,95,3.30624,-0.0133279,0.244813,0.805405
1601,87,3.30684,-0.00755255,0.243581,0.802279
1609,79,3.306175,-0.00957859,0.243674,0.799947
1617,71,3.30678,-0.013556,0.242449,0.79719
1625,63,3.30638,-0.00963211,0.241654,0.794266
1633,55,3.30689,-0.0155756,0.240384,0.791895
1641,47,3.3072,-0.0136783,0.239672,0.78927
1649,39,3.30602,-0.0138066,0.239745,0.786601
1657,31,3.3077,-0.00758779,0.237656,0.784006
1665,23,3.30749,-0.015754,0.237314,0.781523
1673,15,3.3066,-0.0138802,0.236954,0.778692
1681,7,3.30778,-0.00979418,0.235296,0.776145
1685,3,3.307,-0.0101666,0.235292,0.774706