Folder: MyBatteryML/hust_correlation_analysis/matrices (part 28)

File: HUST_8-2_cycle_feature_matrix.csv
cycle_number,rul,voltage,current,capacity,charge_capacity
1,2043,3.32292,-0.00638611,0.288005,1.03757
11,2033,3.30957,-0.0106403,0.295028,1.02982
21,2023,3.30936,-0.0134299,0.295337,1.02806
31,2013,3.30997,-0.0116836,0.294554,1.02709
41,2003,3.30943,-0.0132405,0.294569,1.02602
51,1993,3.31066,-0.0115269,0.293708,1.02483
61,1983,3.31043,-0.0128164,0.293703,1.02411
71,1973,3.30998,-0.0140324,0.293708,1.02344
81,1963,3.31168,-0.0120749,0.292437,1.0226
91,1953,3.31111,-0.0133861,0.292835,1.02164
101,1943,3.31239,-0.011484,0.291576,1.02077
111,1933,3.31144,-0.0121947,0.291983,1.02019
121,1923,3.31111,-0.0128966,0.291981,1.02005
131,1913,3.31079,-0.0140235,0.291981,1.01916
141,1903,3.3117,-0.0116708,0.291122,1.01833
151,1893,3.31171,-0.0127621,0.29112,1.01774
161,1883,3.3114,-0.0127806,0.291123,1.01772
171,1873,3.31094,-0.0140877,0.291538,1.01682
181,1863,3.31259,-0.011505,0.290271,1.01632
191,1853,3.3124,-0.0121406,0.290265,1.01595
201,1843,3.3121,-0.0128001,0.290267,1.0156
211,1833,3.31151,-0.0134873,0.290666,1.01499
221,1823,3.31099,-0.0141157,0.290674,1.01467
231,1813,3.3129,-0.0116295,0.289395,1.01432
241,1803,3.31215,-0.011952,0.289797,1.01366
251,1793,3.31195,-0.012444,0.28979,1.01338
261,1783,3.31254,-0.0129556,0.289384,1.01327
271,1773,3.31211,-0.0141015,0.289382,1.01264
281,1763,3.31313,-0.0117527,0.288716,1.0118
291,1753,3.31288,-0.0123976,0.288616,1.01147
301,1743,3.31267,-0.012926,0.288607,1.01115
311,1733,3.31214,-0.013617,0.288517,1.01075
321,1723,3.31314,-0.0117138,0.287644,1.00967
331,1713,3.31314,-0.0123912,0.28765,1.00929
341,1703,3.31304,-0.0130087,0.287247,1.00914
351,1693,3.31209,-0.0142387,0.287659,1.00827
361,1683,3.31342,-0.0117672,0.286087,1.00768
371,1673,3.31334,-0.0123066,0.286391,1.0074
381,1663,3.31282,-0.012953,0.286392,1.00703
391,1653,3.31233,-0.0142991,0.286796,1.00609
401,1643,3.31388,-0.0117012,0.285525,1.00553
411,1633,3.31336,-0.0123842,0.285531,1.00521
421,1623,3.31304,-0.0135506,0.285528,1.00455
431,1613,3.31299,-0.0141597,0.285528,1.00422
441,1603,3.31482,-0.0116573,0.284273,1.00385
451,1593,3.31426,-0.0123385,0.28426,1.00326
461,1583,3.31453,-0.0129431,0.284266,1.00293
471,1573,3.31403,-0.0136663,0.284457,1.00252
481,1563,3.31321,-0.014374,0.284661,1.00192
491,1553,3.31486,-0.0125075,0.283405,1.00101
501,1543,3.31429,-0.013101,0.283391,1.00065
511,1533,3.31336,-0.0137871,0.283786,1.00005
521,1523,3.31526,-0.0118284,0.282527,0.999187
531,1513,3.31503,-0.0117814,0.282114,0.999392
541,1503,3.31482,-0.0130756,0.282129,0.998704
551,1493,3.31501,-0.0136271,0.282122,0.998355
561,1483,3.31636,-0.0117398,0.281673,0.997268
571,1473,3.31534,-0.0123788,0.281667,0.996729
581,1463,3.31516,-0.0129981,0.281665,0.996383
591,1453,3.31412,-0.0143686,0.282072,0.995423
601,1443,3.31535,-0.0119896,0.280803,0.99476
611,1433,3.31514,-0.010895,0.280407,0.994706
621,1423,3.31565,-0.0131325,0.280398,0.994324
631,1413,3.31635,-0.00930309,0.279543,0.993415
641,1403,3.31543,-0.0153439,0.280512,0.992892
651,1393,3.31641,-0.0128884,0.27965,0.992087
661,1383,3.3148,-0.0139231,0.28034,0.991294
671,1373,3.31598,-0.0096216,0.278948,0.990999
681,1363,3.31565,-0.012607,0.279664,0.989848
691,1353,3.31673,-0.00872192,0.278196,0.989121
701,1343,3.31577,-0.0096762,0.278483,0.988567
711,1333,3.31596,-0.0120362,0.2786,0.987968
721,1323,3.31737,-0.013112,0.277995,0.987554
731,1313,3.3164,-0.00933969,0.277612,0.98656
741,1303,3.31508,-0.0107229,0.278412,0.98539
751,1293,3.31659,-0.0129949,0.277633,0.985206
761,1283,3.3162,-0.00917899,0.277141,0.984233
771,1273,3.31574,-0.0108306,0.277265,0.983132
781,1263,3.31588,-0.0128572,0.277258,0.982866
791,1253,3.31618,-0.0135296,0.276848,0.982682
801,1243,3.31723,-0.0120522,0.27638,0.981105
811,1233,3.31677,-0.0127687,0.276384,0.980712
821,1223,3.31563,-0.0143694,0.276784,0.979618
831,1213,3.31625,-0.0152602,0.276505,0.979131
841,1203,3.31651,-0.0133993,0.275923,0.977966
851,1193,3.31524,-0.0140606,0.276326,0.977404
861,1183,3.31692,-0.0118753,0.275046,0.976591
871,1173,3.31748,-0.0082986,0.27405,0.975668
881,1163,3.31653,-0.0141879,0.27517,0.975132
891,1153,3.3164,-0.0148745,0.275176,0.974754
901,1143,3.3181,-0.012134,0.273762,0.974405
911,1133,3.3181,-0.00797844,0.273164,0.973579
921,1123,3.31717,-0.00990948,0.273572,0.972328
931,1113,3.31765,-0.0119371,0.273303,0.972111
941,1103,3.31681,-0.0132519,0.273704,0.971187
951,1093,3.31606,-0.0143679,0.274111,0.970382
961,1083,3.3166,-0.0148555,0.273706,0.97028
971,1073,3.31806,-0.0123113,0.272413,0.969651
981,1063,3.31733,-0.00912301,0.272224,0.968107
991,1053,3.31686,-0.0145942,0.272961,0.968041
1001,1043,3.31664,-0.0110408,0.272354,0.966874
1011,1033,3.31679,-0.0113903,0.271944,0.966843
1021,1023,3.31675,-0.0142795,0.272368,0.965991
1031,1013,3.31806,-0.0100647,0.271067,0.965355
1041,1003,3.31698,-0.01141,0.271471,0.96441
1051,993,3.31673,-0.0140728,0.271896,0.963658
1061,983,3.31555,-0.0151654,0.272305,0.962864
1071,973,3.31757,-0.0135105,0.27102,0.961727
1081,963,3.31737,-0.01412,0.271015,0.961377
1091,953,3.31645,-0.0151565,0.27112,0.96062
1101,943,3.31839,-0.00817597,0.269521,0.959238
1111,933,3.31762,-0.00912699,0.269521,0.95871
1121,923,3.31583,-0.0152874,0.270967,0.958121
1131,913,3.31778,-0.0114632,0.269665,0.957063
1141,903,3.31621,-0.0197124,0.270087,0.955911
1151,893,3.31703,-0.0141959,0.268365,0.954871
1161,883,3.31772,-0.0122613,0.267761,0.953675
1171,873,3.31822,-0.0115393,0.267073,0.952987
1181,863,3.31841,-0.0065389,0.26606,0.951139
1191,853,3.31827,-0.00926533,0.26619,0.950724
1201,843,3.31665,-0.0191894,0.266813,0.949628
1211,833,3.31623,-0.0155307,0.266183,0.948464
1221,823,3.31717,-0.0135704,0.265309,0.947303
1231,813,3.3187,-0.0130315,0.264242,0.946345
1241,803,3.31632,-0.0194309,0.264994,0.945094
1251,793,3.31654,-0.0147229,0.263878,0.943402
1261,783,3.31826,-0.0116358,0.262311,0.941766
1271,773,3.31761,-0.0143454,0.262748,0.941002
1281,763,3.31667,-0.0141273,0.262745,0.939857
1291,753,3.31778,-0.0109758,0.261456,0.938218
1301,743,3.317,-0.0174371,0.261444,0.937119
1311,733,3.31737,-0.0126708,0.260157,0.935103
1321,723,3.31646,-0.0148202,0.260564,0.933763
1331,713,3.31645,-0.0186246,0.259682,0.931912
1341,703,3.31571,-0.020667,0.260089,0.930652
1351,693,3.31593,-0.0159038,0.2588,0.928611
1361,683,3.3174,-0.0127381,0.257512,0.926996
1371,673,3.31566,-0.0131372,0.257908,0.925314
1381,663,3.31632,-0.0187041,0.257026,0.923807
1391,653,3.31583,-0.0110846,0.255697,0.921121
1401,643,3.3166,-0.008552,0.254666,0.919338
1411,633,3.31503,-0.010818,0.255211,0.917545
1421,623,3.31657,-0.0145723,0.253555,0.915492
1431,613,3.31442,-0.0192774,0.254756,0.913975
1441,603,3.31512,-0.0143449,0.253459,0.911973
1451,593,3.31554,-0.0119325,0.252568,0.909721
1461,583,3.31528,-0.016601,0.252083,0.907299
1471,573,3.31395,-0.0194089,0.25249,0.905671
1481,563,3.31354,-0.0151445,0.251595,0.903105
1491,553,3.31456,-0.0197366,0.250295,0.9011
1501,543,3.31389,-0.0193626,0.250009,0.898728
1511,533,3.31432,-0.0150611,0.248919,0.896346
1521,523,3.31345,-0.0178987,0.248776,0.894712
1531,513,3.31375,-0.00866548,0.247318,0.891673
1541,503,3.31396,-0.0142148,0.246558,0.888858
1551,493,3.31376,-0.0117158,0.245654,0.886608
1561,483,3.31388,-0.0205699,0.245058,0.884389
1571,473,3.3127,-0.0186157,0.244967,0.881765
1581,463,3.31256,-0.0124181,0.243443,0.879306
1591,453,3.31354,-0.014294,0.242764,0.876878
1601,443,3.3118,-0.0176521,0.242444,0.874287
1611,433,3.31234,-0.0136205,0.241316,0.871718
1621,423,3.31094,-0.0155588,0.241362,0.868929
1631,413,3.31211,-0.0167931,0.239723,0.86689
1641,403,3.31063,-0.0186999,0.239951,0.863864
1651,393,3.31096,-0.0168391,0.238905,0.86147
1661,383,3.31158,-0.0170712,0.237392,0.858196
1671,373,3.30996,-0.0220002,0.237896,0.85655
1681,363,3.31157,-0.0165028,0.235915,0.853539
1691,353,3.31027,-0.0143436,0.235841,0.85089
1701,343,3.31197,-0.0160658,0.233739,0.84839
1711,333,3.31049,-0.0163088,0.233841,0.845354
1721,323,3.31006,-0.016051,0.233331,0.843063
1731,313,3.31021,-0.0214485,0.232592,0.840688
1741,303,3.31205,-0.0120091,0.230068,0.837432
1751,293,3.31058,-0.0099989,0.229803,0.834659
1761,283,3.30932,-0.0120454,0.229952,0.832259
1771,273,3.31006,-0.0210342,0.229151,0.83041
1781,263,3.31015,-0.0171349,0.228228,0.827462
1791,253,3.30966,-0.0132831,0.227297,0.824434
1801,243,3.30909,-0.0213248,0.226792,0.82201
1811,233,3.30945,-0.018658,0.225869,0.819751
1821,223,3.31035,-0.0125733,0.224125,0.816873
1831,213,3.30973,-0.0189405,0.223608,0.813955
1841,203,3.30955,-0.0186643,0.223087,0.811664
1851,193,3.30923,-0.0140608,0.222154,0.808947
1861,183,3.30864,-0.0185477,0.221074,0.806209
1871,173,3.30824,-0.0164248,0.220384,0.803671
1881,163,3.30872,-0.0141606,0.219453,0.801207
1891,153,3.30936,-0.0177457,0.217864,0.79893
1901,143,3.307,-0.0236725,0.219242,0.796418
1911,133,3.30754,-0.0196171,0.217892,0.793626
1921,123,3.30958,-0.00920508,0.215284,0.790679
1931,113,3.3088,-0.017292,0.215152,0.788183
1941,103,3.30916,-0.0126408,0.213798,0.785608
1951,93,3.30745,-0.0165735,0.21437,0.783559
1961,83,3.30796,-0.0139833,0.213189,0.780986
1971,73,3.30812,-0.0199411,0.212248,0.778591
1981,63,3.30782,-0.0154558,0.211527,0.77594
1991,53,3.30774,-0.0108187,0.210406,0.773317
2001,43,3.3059,-0.0163379,0.211278,0.771504
2011,33,3.3056,-0.0246821,0.210382,0.769215
2021,23,3.30859,-0.0138984,0.207726,0.766276
2031,13,3.3084,-0.01196,0.207174,0.763379
2041,3,3.30593,-0.0132453,0.207574,0.761386

File: HUST_8-3_cycle_feature_matrix.csv
cycle_number,rul,voltage,current,capacity,charge_capacity
1,2292,3.31036,0.0157251,0.280808,1.03806
12,2281,3.30317,-0.0104048,0.28892,1.0219
23,2270,3.30768,-0.00835828,0.285232,1.0276
34,2259,3.3079,-0.0102385,0.284693,1.0296
45,2248,3.30921,-0.0096073,0.283524,1.03061
56,2237,3.31101,-0.00777163,0.281843,1.02989
67,2226,3.31123,-0.00902233,0.281839,1.02923
78,2215,3.31105,-0.0101221,0.281442,1.02881
89,2204,3.31209,-0.00838548,0.280549,1.02764
100,2193,3.31146,-0.00958078,0.280926,1.02675
111,2182,3.31249,-0.0078125,0.280027,1.02561
122,2171,3.3123,-0.00842143,0.280032,1.02527
133,2160,3.31149,-0.0096684,0.280218,1.02436
144,2149,3.31268,-0.00780777,0.279523,1.02325
155,2138,3.31234,-0.00836524,0.279608,1.02294
166,2127,3.31161,-0.00957517,0.279905,1.02206
177,2116,3.31219,-0.00719058,0.279009,1.02123
188,2105,3.31214,-0.0084641,0.279796,1.02033
199,2094,3.31138,-0.00911714,0.279735,1.01976
210,2083,3.31098,-0.0102781,0.280178,1.01891
221,2072,3.31252,-0.00784699,0.27889,1.01831
232,2061,3.31192,-0.00852388,0.279279,1.01774
243,2050,3.31063,-0.00863177,0.280257,1.01725
254,2039,3.31002,-0.00994966,0.280463,1.01613
265,2028,3.30983,-0.0106201,0.280456,1.01593
276,2017,3.31173,-0.0086458,0.279159,1.01507
287,2006,3.31107,-0.00928339,0.279104,1.01473
298,1995,3.31051,-0.00985213,0.279156,1.0144
309,1984,3.3101,-0.0105238,0.27955,1.01383
320,1973,3.31219,-0.00852711,0.278252,1.01296
331,1962,3.31105,-0.00923878,0.278648,1.01237
342,1951,3.31065,-0.0098369,0.278636,1.01201
353,1940,3.31223,-0.00736014,0.277742,1.01125
364,1929,3.31207,-0.00855847,0.277744,1.01059
375,1918,3.311,-0.00921442,0.278136,1.01
386,1907,3.31108,-0.00976839,0.278136,1.00972
397,1896,3.31065,-0.0104603,0.278532,1.00914
408,1885,3.31141,-0.00805441,0.277626,1.00828
419,1874,3.31135,-0.00919644,0.277619,1.00765
430,1863,3.31136,-0.00980196,0.277632,1.00734
441,1852,3.31012,-0.0105411,0.278023,1.00671
452,1841,3.3115,-0.00801846,0.277118,1.00593
463,1830,3.31124,-0.00872917,0.277524,1.00536
474,1819,3.31076,-0.00936487,0.277518,1.005
485,1808,3.31029,-0.0101164,0.277926,1.0044
496,1797,3.3106,-0.010548,0.277517,1.00436
507,1786,3.31163,-0.00801964,0.276605,1.00356
518,1775,3.31168,-0.00868539,0.276602,1.00319
529,1764,3.31063,-0.00939825,0.277252,1.0026
540,1753,3.31007,-0.0106902,0.277409,1.0017
551,1742,3.31178,-0.00750312,0.2761,1.00145
562,1731,3.31083,-0.0087651,0.276502,1.00055
573,1720,3.31133,-0.00932769,0.276905,1.00028
584,1709,3.31084,-0.00997852,0.276147,0.999916
595,1698,3.31264,-0.00735551,0.275197,0.999395
606,1687,3.31165,-0.00800113,0.275596,0.998833
617,1676,3.31061,-0.00935137,0.276005,0.997911
628,1665,3.31089,-0.00995314,0.275995,0.997568
639,1654,3.30981,-0.0106896,0.276404,0.996976
650,1643,3.31179,-0.00814088,0.275337,0.996398
661,1632,3.31167,-0.00878512,0.275084,0.99603
672,1621,3.31102,-0.00942998,0.275488,0.99548
683,1610,3.31039,-0.0100642,0.275485,0.995123
694,1599,3.3118,-0.00812334,0.274656,0.993993
705,1588,3.3117,-0.0087439,0.274578,0.993667
716,1577,3.31019,-0.00960633,0.275394,0.992811
727,1566,3.31068,-0.0100786,0.274982,0.992752
738,1555,3.30981,-0.0109227,0.275584,0.992114
749,1544,3.31199,-0.00877653,0.274064,0.991254
760,1533,3.31109,-0.00956295,0.274477,0.990635
771,1522,3.31052,-0.0102053,0.274474,0.989009
782,1511,3.30982,-0.010929,0.274879,0.989686
793,1500,3.31111,-0.00900327,0.274149,0.98852
804,1489,3.31119,-0.00953161,0.273957,0.988238
815,1478,3.31008,-0.0109425,0.274364,0.98727
826,1467,3.31231,-0.00815488,0.273039,0.986777
837,1456,3.31128,-0.00893555,0.273449,0.986161
848,1445,3.31068,-0.0102332,0.273857,0.986691
859,1434,3.31021,-0.0108567,0.273856,0.98492
870,1423,3.31127,-0.00831696,0.273179,0.98409
881,1412,3.31064,-0.00966051,0.273435,0.983176
892,1401,3.30974,-0.0104389,0.273354,0.982765
903,1390,3.31135,-0.00843588,0.272439,0.981634
914,1379,3.31137,-0.00905268,0.272433,0.981293
925,1368,3.30993,-0.0103828,0.273257,0.980166
936,1357,3.30968,-0.0110308,0.273252,0.979838
947,1346,3.3106,-0.00916282,0.272336,0.978618
958,1335,3.31026,-0.00978746,0.272338,0.97829
969,1324,3.31018,-0.0104047,0.27234,0.977979
980,1313,3.31063,-0.00851045,0.272237,0.976554
991,1302,3.31072,-0.00973899,0.271825,0.9759
1002,1291,3.30951,-0.0111663,0.272659,0.974751
1013,1280,3.31026,-0.00846637,0.27133,0.974188
1024,1269,3.30948,-0.00978451,0.271733,0.973258
1035,1258,3.30936,-0.0111167,0.272153,0.972366
1046,1247,3.31068,-0.00858642,0.270821,0.971684
1057,1236,3.30937,-0.00994835,0.271654,0.970562
1068,1225,3.30913,-0.0113341,0.27165,0.969832
1079,1214,3.31017,-0.00931501,0.27073,0.968671
1090,1203,3.30905,-0.0100196,0.271144,0.968098
1101,1192,3.30846,-0.0113749,0.271572,0.967189
1112,1181,3.30983,-0.00927875,0.270645,0.966049
1123,1170,3.30881,-0.0107541,0.271065,0.965092
1134,1159,3.30987,-0.00870334,0.270135,0.963914
1145,1148,3.30886,-0.0101264,0.270747,0.962973
1156,1137,3.3079,-0.0114445,0.270985,0.962087
1167,1126,3.30917,-0.00948028,0.270059,0.960887
1178,1115,3.30887,-0.0101337,0.270057,0.960554
1189,1104,3.30906,-0.00875009,0.269553,0.958809
1200,1093,3.30805,-0.0100477,0.269977,0.958174
1211,1082,3.30793,-0.0115161,0.269977,0.957191
1222,1071,3.30938,-0.00939319,0.269046,0.956027
1233,1060,3.30757,-0.0108891,0.269479,0.95508
1244,1049,3.30814,-0.00892971,0.26939,0.953631
1255,1038,3.30772,-0.0102542,0.268977,0.952954
1266,1027,3.30884,-0.0082515,0.268476,0.951516
1277,1016,3.30807,-0.00953831,0.268468,0.951098
1288,1005,3.30593,-0.011143,0.26933,0.949605
1299,994,3.30751,-0.00966005,0.2684,0.948112
1310,983,3.30628,-0.0111479,0.268827,0.947154
1321,972,3.30807,-0.00905037,0.267893,0.945962
1332,961,3.30592,-0.0112872,0.268769,0.944423
1343,950,3.30751,-0.00908331,0.267394,0.94346
1354,939,3.30565,-0.0106312,0.268271,0.942269
1365,928,3.30728,-0.00906925,0.267332,0.940797
1376,917,3.30593,-0.0106208,0.267778,0.939838
1387,906,3.30739,-0.00902326,0.266832,0.938342
1398,895,3.30598,-0.0105062,0.26727,0.937384
1409,884,3.3067,-0.00919752,0.266778,0.935569
1420,873,3.30575,-0.0105641,0.266782,0.934911
1431,862,3.30564,-0.00922203,0.266723,0.93286
1442,851,3.30488,-0.0106754,0.266818,0.932146
1453,840,3.30528,-0.0093274,0.266226,0.930314
1464,829,3.30411,-0.0108954,0.266869,0.92935
1475,818,3.30449,-0.00950843,0.266188,0.927532
1486,807,3.3037,-0.0116953,0.267063,0.92625
1497,796,3.30528,-0.00934034,0.265243,0.925327
1508,785,3.30352,-0.0116942,0.266141,0.923996
1519,774,3.30397,-0.0101781,0.265647,0.921749
1530,763,3.30236,-0.0124436,0.266106,0.920938
1541,752,3.30313,-0.0110384,0.265617,0.918877
1552,741,3.30357,-0.00889824,0.264681,0.917622
1563,730,3.30154,-0.0112684,0.265593,0.916035
1574,719,3.30345,-0.00962561,0.264639,0.914525
1585,708,3.30155,-0.0118616,0.265093,0.913215
1596,697,3.30132,-0.0113917,0.265079,0.910728
1607,686,3.3022,-0.00977395,0.264122,0.909188
1618,675,3.30062,-0.0179344,0.264126,0.908045
1629,664,3.30146,-0.0132593,0.262694,0.905434
1640,653,3.30258,-0.00980937,0.261718,0.903771
1651,642,3.30035,-0.0181008,0.261749,0.902128
1662,631,3.30152,-0.0145646,0.260324,0.900458
1673,620,3.30185,-0.0111016,0.25936,0.898542
1684,609,3.30098,-0.0160704,0.258436,0.896647
1695,598,3.30137,-0.00946538,0.258398,0.894543
1706,587,3.30136,-0.0119425,0.256975,0.892528
1717,576,3.3006,-0.0188992,0.256511,0.890737
1728,565,3.30109,-0.0173831,0.255547,0.889138
1739,554,3.30081,-0.0147604,0.255105,0.886619
1750,543,3.3015,-0.0120476,0.254075,0.884329
1761,532,3.29997,-0.0103821,0.253608,0.882851
1772,521,3.30036,-0.0135907,0.252177,0.880503
1783,510,3.30085,-0.0108109,0.251214,0.878267
1794,499,3.30138,-0.0100747,0.250257,0.87632
1805,488,3.2994,-0.0173556,0.250254,0.874034
1816,477,3.30017,-0.0125759,0.24881,0.871831
1827,466,3.30058,-0.00969623,0.247838,0.869603
1838,455,3.30007,-0.0171527,0.247319,0.867419
1849,444,3.30041,-0.0143765,0.246341,0.865132
1860,433,3.29914,-0.0134471,0.245881,0.863305
1871,422,3.30016,-0.0186457,0.24445,0.861354
1882,411,3.29977,-0.0160108,0.243926,0.858789
1893,400,3.30109,-0.0110351,0.242031,0.856676
1904,389,3.30077,-0.017168,0.24106,0.854127
1915,378,3.30119,-0.0123517,0.239619,0.851702
1926,367,3.30146,-0.0164944,0.238183,0.848999
1937,356,3.30182,-0.0115523,0.23675,0.846633
1948,345,3.29993,-0.0114238,0.236737,0.844193
1959,334,3.29947,-0.0197958,0.236199,0.841727
1970,323,3.29926,-0.0170294,0.235211,0.839416
1981,312,3.29967,-0.0128364,0.233944,0.836698
1992,301,3.30006,-0.00999321,0.232771,0.834402
2003,290,3.29968,-0.0184933,0.232216,0.831899
2014,279,3.30024,-0.0121257,0.230329,0.829069
2025,268,3.3,-0.0186082,0.229345,0.826485
2036,257,3.29991,-0.0166103,0.228774,0.823585
2047,246,3.3008,-0.0113589,0.226888,0.821491
2058,235,3.30007,-0.0186737,0.226326,0.818325
2069,224,3.30041,-0.0136443,0.224878,0.815905
2080,213,3.3002,-0.0114459,0.223858,0.813293
2091,202,3.29966,-0.0166737,0.22285,0.810012
2102,191,3.29962,-0.0146375,0.221838,0.807378
2113,180,3.29974,-0.0102764,0.220386,0.804654
2124,169,3.29896,-0.0192281,0.220248,0.801894
2135,158,3.29932,-0.0126064,0.218349,0.799054
2146,147,3.29936,-0.020041,0.217323,0.796127
2157,136,3.29887,-0.0180142,0.216737,0.793233
2168,125,3.29981,-0.0133926,0.214839,0.790808
2179,114,3.29939,-0.0113534,0.214247,0.787902
2190,103,3.29863,-0.02045,0.213652,0.785395
2201,92,3.29804,-0.016948,0.212757,0.782045
2212,81,3.30076,-0.0155161,0.209255,0.778641
2223,70,3.30136,-0.0109704,0.207787,0.775932
2234,59,3.30047,-0.0111778,0.207606,0.773133
2245,48,3.2996,-0.00994209,0.206998,0.769899
2256,37,3.30019,-0.0166919,0.20552,0.767596
2267,26,3.30029,-0.0107906,0.204042,0.764139
2278,15,3.29885,-0.0211579,0.203849,0.761034
2289,4,3.29978,-0.0149869,0.201936,0.757883
2290,3,3.29912,-0.0173622,0.202364,0.757982