Folder: MyBatteryML/hust_correlation_analysis/matrices (part 8)

File: HUST_2-8_cycle_feature_matrix.csv
cycle_number,rul,voltage,current,capacity,charge_capacity
1,1483,3.31842,-0.0123935,0.347125,1.02304
8,1476,3.30186,-0.0154834,0.353197,1.01642
15,1469,3.30342,-0.0136822,0.352013,1.01548
22,1462,3.30324,-0.0155635,0.352012,1.01442
29,1455,3.30508,-0.0130625,0.350335,1.01404
36,1448,3.30503,-0.0143455,0.350316,1.01327
43,1441,3.30503,-0.0149377,0.349818,1.01309
50,1434,3.30647,-0.0125579,0.348641,1.01246
57,1427,3.3064,-0.0137172,0.348628,1.01202
64,1420,3.30573,-0.0144149,0.349098,1.01114
71,1413,3.30576,-0.0150193,0.3486,1.01094
78,1406,3.30711,-0.0130905,0.347937,1.00996
85,1399,3.30682,-0.01376,0.347926,1.00956
92,1392,3.3066,-0.0145219,0.347913,1.00907
99,1385,3.30657,-0.0149999,0.34793,1.00886
106,1378,3.30604,-0.0156283,0.347926,1.00848
113,1371,3.30786,-0.0131854,0.346751,1.00788
120,1364,3.30714,-0.0138967,0.347234,1.00729
127,1357,3.3073,-0.0144519,0.347249,1.00702
134,1350,3.30678,-0.0150151,0.347238,1.00667
141,1343,3.30676,-0.0156697,0.347232,1.00627
148,1336,3.30842,-0.0131447,0.346812,1.00581
155,1329,3.30781,-0.0132327,0.346658,1.00558
162,1322,3.30752,-0.0138537,0.346574,1.00523
169,1315,3.30677,-0.0145199,0.347078,1.00469
176,1308,3.30677,-0.015122,0.347086,1.00438
183,1301,3.30663,-0.0156908,0.347085,1.00405
190,1294,3.30828,-0.0132162,0.345916,1.00347
197,1287,3.308,-0.0132551,0.346005,1.00346
204,1280,3.30793,-0.0138748,0.345909,1.00308
211,1273,3.30743,-0.0145642,0.346398,1.00251
218,1266,3.30754,-0.0151962,0.3464,1.00241
225,1259,3.30692,-0.0151742,0.3464,1.00217
232,1252,3.30678,-0.0157477,0.34638,1.00179
239,1245,3.30639,-0.0174797,0.346839,1.00179
246,1238,3.30617,-0.0174662,0.346805,1.00169
253,1231,3.30779,-0.0150196,0.345659,1.00117
260,1224,3.30787,-0.0155944,0.345636,1.0008
267,1217,3.30765,-0.0162188,0.345649,1.00046
274,1210,3.30742,-0.0168546,0.345666,1.00015
281,1203,3.30716,-0.0168527,0.345649,1.00012
288,1196,3.30699,-0.0174372,0.345631,0.999739
295,1189,3.3089,-0.0149539,0.3445,0.99925
302,1182,3.30884,-0.0155729,0.344489,0.998868
309,1175,3.3082,-0.015537,0.344463,0.998829
316,1168,3.30778,-0.0163428,0.344984,0.998269
323,1161,3.30784,-0.0168735,0.344986,0.997981
330,1154,3.30785,-0.017539,0.344984,0.997579
337,1147,3.3076,-0.0174295,0.344484,0.9978
344,1140,3.30875,-0.0134391,0.34383,0.996717
351,1133,3.30896,-0.0139768,0.34334,0.996569
358,1126,3.30841,-0.0162971,0.344305,0.996114
365,1119,3.30843,-0.0152808,0.343825,0.995647
372,1112,3.30747,-0.0159115,0.344326,0.995132
379,1105,3.30928,-0.0133821,0.343155,0.994558
386,1098,3.30902,-0.0134623,0.343148,0.994507
393,1091,3.30916,-0.0140161,0.34325,0.994244
400,1084,3.30871,-0.0145928,0.343166,0.993916
407,1077,3.30808,-0.0153231,0.343645,0.99328
414,1070,3.30732,-0.015994,0.344152,0.992772
421,1063,3.30914,-0.0134565,0.342995,0.992235
428,1056,3.30905,-0.0140544,0.342992,0.991874
435,1049,3.30874,-0.0146352,0.342979,0.991522
442,1042,3.30821,-0.015394,0.343493,0.990976
449,1035,3.30784,-0.0159701,0.343478,0.990591
456,1028,3.30952,-0.013462,0.342293,0.989976
463,1021,3.30942,-0.0141644,0.34231,0.989599
470,1014,3.30864,-0.0148085,0.342792,0.989056
477,1007,3.30828,-0.0154632,0.342699,0.988645
484,1000,3.30752,-0.0161513,0.343271,0.988056
491,993,3.30924,-0.013611,0.342119,0.987534
498,986,3.30896,-0.0142001,0.342596,0.987196
505,979,3.30878,-0.0148163,0.342102,0.986821
512,972,3.30841,-0.0154309,0.342114,0.98649
519,965,3.30983,-0.0129855,0.341939,0.985732
526,958,3.30953,-0.0135846,0.341428,0.985332
533,951,3.30924,-0.014236,0.34142,0.984927
540,944,3.3083,-0.015533,0.341938,0.984073
547,937,3.30825,-0.0161352,0.341938,0.983732
554,930,3.30966,-0.0136227,0.340833,0.983093
561,923,3.30892,-0.0143569,0.341263,0.982792
568,916,3.30818,-0.0149538,0.341784,0.982351
575,909,3.30832,-0.0161822,0.341784,0.981397
582,902,3.30923,-0.0137231,0.341111,0.980582
589,895,3.30898,-0.0143546,0.34113,0.980283
596,888,3.30842,-0.0156925,0.341633,0.97918
603,881,3.30803,-0.0162212,0.341639,0.979092
610,874,3.30922,-0.0136805,0.34046,0.978471
617,867,3.30933,-0.0143395,0.340467,0.978109
624,860,3.30834,-0.0150665,0.34096,0.977512
631,853,3.30708,-0.0163715,0.341941,0.97658
638,846,3.30994,-0.0137627,0.339778,0.976183
645,839,3.30976,-0.0143954,0.339858,0.975834
652,832,3.30875,-0.0157434,0.340273,0.974872
659,825,3.30825,-0.0163705,0.34026,0.974499
666,818,3.30987,-0.0138582,0.3391,0.973902
673,811,3.3094,-0.0151294,0.339603,0.973017
680,804,3.3085,-0.0158449,0.340204,0.972426
687,797,3.30972,-0.013906,0.339433,0.971313
694,790,3.30904,-0.0152267,0.339948,0.970422
701,783,3.3085,-0.0158633,0.340685,0.970076
708,776,3.30947,-0.013982,0.339276,0.969147
715,769,3.30939,-0.0145709,0.33875,0.968672
722,762,3.30833,-0.01591,0.339247,0.96772
729,755,3.30878,-0.0139777,0.339102,0.966451
736,748,3.30918,-0.0146642,0.338587,0.966219
743,741,3.30831,-0.0160176,0.339095,0.965295
750,734,3.30958,-0.0140778,0.338437,0.964179
757,727,3.30878,-0.0154264,0.338936,0.963224
764,720,3.30797,-0.0160103,0.33893,0.962874
771,713,3.30881,-0.014157,0.338256,0.961658
778,706,3.30849,-0.0154053,0.338252,0.960952
785,699,3.30734,-0.0168444,0.338744,0.959913
792,692,3.30959,-0.014877,0.337569,0.958962
799,685,3.30808,-0.0163014,0.338618,0.957895
806,678,3.30938,-0.0135742,0.337408,0.957263
813,671,3.30957,-0.0149336,0.336887,0.956635
820,664,3.30831,-0.0162811,0.33793,0.955604
827,657,3.30993,-0.0142948,0.336758,0.954648
834,650,3.30879,-0.0156285,0.337264,0.953696
841,643,3.30773,-0.0170119,0.337771,0.952738
848,636,3.30903,-0.0150301,0.337125,0.951638
855,629,3.3081,-0.0164627,0.337646,0.950686
862,622,3.30885,-0.0144542,0.33697,0.949494
869,615,3.30779,-0.015773,0.337492,0.9486
876,608,3.3074,-0.0171784,0.3375,0.94785
883,601,3.30808,-0.0151948,0.336846,0.94669
890,594,3.3066,-0.0165894,0.337345,0.945691
897,587,3.3086,-0.0145871,0.336145,0.944674
904,580,3.30744,-0.0159988,0.336682,0.943758
911,573,3.30879,-0.0146277,0.336024,0.942239
918,566,3.30807,-0.0159919,0.336016,0.941458
925,559,3.30859,-0.0140698,0.335888,0.940093
932,552,3.30779,-0.0160109,0.336431,0.938892
939,545,3.30639,-0.0174602,0.337433,0.937889
946,538,3.30773,-0.015383,0.335752,0.936899
953,531,3.30682,-0.0169443,0.336277,0.935863
960,524,3.30812,-0.0154744,0.335634,0.934419
967,517,3.30668,-0.0169515,0.336149,0.933394
974,510,3.30678,-0.0156882,0.336023,0.931597
981,503,3.30562,-0.017043,0.336551,0.93067
988,496,3.30658,-0.0157287,0.33591,0.929129
995,489,3.30579,-0.0178468,0.336457,0.927831
1002,482,3.30668,-0.0164857,0.335811,0.926286
1009,475,3.307,-0.015107,0.335713,0.924594
1016,468,3.30534,-0.0165622,0.336257,0.923638
1023,461,3.3052,-0.0152707,0.33614,0.921817
1030,454,3.30428,-0.017435,0.336679,0.920449
1037,447,3.30526,-0.0159596,0.336057,0.919017
1044,440,3.30606,-0.0146119,0.335467,0.917399
1051,433,3.30472,-0.0168092,0.33593,0.915979
1058,426,3.30557,-0.0153808,0.335275,0.914388
1065,419,3.30349,-0.0184371,0.336381,0.912412
1072,412,3.30432,-0.0170033,0.335735,0.909479
1079,405,3.30502,-0.0156331,0.335581,0.909213
1086,398,3.30587,-0.014904,0.334494,0.907229
1093,391,3.30359,-0.0161845,0.335566,0.905
1100,384,3.30357,-0.0228493,0.335438,0.902901
1107,377,3.30469,-0.0194204,0.333721,0.901447
1114,370,3.30219,-0.0206872,0.33484,0.899194
1121,363,3.3024,-0.0200547,0.335277,0.897034
1128,356,3.30185,-0.0224521,0.33587,0.895415
1135,349,3.30341,-0.0141822,0.332945,0.893126
1142,342,3.30303,-0.015331,0.333507,0.89105
1149,335,3.30178,-0.0182982,0.331746,0.889023
1156,328,3.30064,-0.0215604,0.333402,0.886788
1163,321,3.302,-0.0157731,0.331053,0.884251
1170,314,3.3041,-0.0204994,0.327039,0.882178
1177,307,3.30426,-0.0179265,0.326408,0.87994
1184,300,3.30313,-0.0200348,0.328037,0.877337
1191,293,3.29953,-0.0175288,0.330321,0.87497
1198,286,3.30018,-0.0206949,0.328546,0.872825
1205,279,3.30115,-0.0237315,0.326774,0.870739
1212,272,3.30088,-0.0218875,0.329036,0.868278
1219,265,3.30073,-0.0212636,0.328999,0.866063
1226,258,3.30372,-0.0227134,0.320877,0.863394
1233,251,3.30319,-0.0210521,0.320865,0.860494
1240,244,3.30426,-0.0163503,0.319119,0.85841
1247,237,3.30382,-0.0144636,0.319053,0.855633
1254,230,3.30342,-0.0196389,0.318416,0.853357
1261,223,3.30388,-0.0157445,0.317975,0.850658
1268,216,3.30114,-0.0170003,0.317789,0.848628
1275,209,3.30195,-0.0208318,0.316025,0.846103
1282,202,3.30203,-0.0248213,0.314837,0.84363
1289,195,3.30238,-0.0188857,0.313079,0.840572
1296,188,3.30253,-0.0162754,0.31245,0.838304
1303,181,3.30247,-0.0162708,0.312394,0.835844
1310,174,3.30155,-0.0223388,0.312328,0.833024
1317,167,3.30235,-0.0156084,0.310003,0.830711
1324,160,3.302,-0.0215903,0.309365,0.828082
1331,153,3.30225,-0.0176199,0.30818,0.825615
1338,146,3.30222,-0.0236006,0.308306,0.822821
1345,139,3.30248,-0.0169688,0.305816,0.820288
1352,132,3.3024,-0.0149782,0.305278,0.81766
1359,125,3.30237,-0.0190262,0.304023,0.814929
1366,118,3.30255,-0.0150577,0.302831,0.812211
1373,111,3.30285,-0.0190654,0.301654,0.809525
1380,104,3.30266,-0.0231331,0.300474,0.806801
1387,97,3.30223,-0.0203237,0.299845,0.804575
1394,90,3.30282,-0.0163465,0.298685,0.801869
1401,83,3.30277,-0.0225384,0.298083,0.799291
1408,76,3.29931,-0.0246762,0.299175,0.796676
1415,69,3.29989,-0.0196065,0.297443,0.794584
1422,62,3.29988,-0.0238075,0.296272,0.791837
1429,55,3.29992,-0.0197295,0.295114,0.789138
1436,48,3.29998,-0.0218135,0.293401,0.786293
1443,41,3.29994,-0.0169158,0.292232,0.783933
1450,34,3.30008,-0.0229822,0.291066,0.781581
1457,27,3.29947,-0.0201632,0.290461,0.777843
1464,20,3.2979,-0.0224746,0.291497,0.776822
1471,13,3.29878,-0.0154818,0.289225,0.774455
1478,6,3.29792,-0.0146708,0.289154,0.77236
1481,3,3.29655,-0.0226745,0.289148,0.771283

File: HUST_3-1_cycle_feature_matrix.csv
cycle_number,rul,voltage,current,capacity,charge_capacity
1,1940,3.31681,0.0187376,0.293916,1.03015
10,1931,3.30471,-0.0198434,0.307105,1.0115
19,1922,3.30845,-0.0188421,0.303914,1.01881
28,1913,3.31088,-0.0166735,0.301264,1.02131
37,1904,3.31145,-0.0184937,0.300378,1.02331
46,1895,3.31211,-0.019078,0.299497,1.0234
55,1886,3.31331,-0.0175341,0.298169,1.02356
64,1877,3.31428,-0.0171776,0.297311,1.02294
73,1868,3.31339,-0.0201255,0.298152,1.02222
82,1859,3.31478,-0.0165878,0.296418,1.02117
91,1850,3.31465,-0.0188215,0.296835,1.02104
100,1841,3.31384,-0.0202027,0.297264,1.02011
109,1832,3.31481,-0.0166174,0.295947,1.01883
118,1823,3.31473,-0.0178838,0.296366,1.01792
127,1814,3.31383,-0.0186799,0.2968,1.01731
136,1805,3.31474,-0.0168141,0.295907,1.01618
145,1796,3.31415,-0.0190607,0.296758,1.01582
154,1787,3.31338,-0.0186943,0.296773,1.01478
163,1778,3.31522,-0.0161286,0.29544,1.0142
172,1769,3.31413,-0.0174738,0.29631,1.01307
181,1760,3.31312,-0.0181208,0.296752,1.01255
190,1751,3.31311,-0.0193812,0.29719,1.01169
199,1742,3.31436,-0.0168606,0.295851,1.01106
208,1733,3.31304,-0.0175985,0.296702,1.01018
217,1724,3.31281,-0.0189672,0.297157,1.00932
226,1715,3.31155,-0.0196951,0.297994,1.00873
235,1706,3.31368,-0.0170392,0.29626,1.00819
244,1697,3.31293,-0.0177193,0.296676,1.00754
253,1688,3.31181,-0.020208,0.297535,1.00702
262,1679,3.31133,-0.0209294,0.297971,1.00642
271,1670,3.31123,-0.0214735,0.297528,1.00636
280,1661,3.31229,-0.0196779,0.297179,1.00497
289,1652,3.31227,-0.020174,0.297082,1.00473
298,1643,3.31119,-0.0211191,0.297521,1.00401
307,1634,3.31287,-0.0183102,0.296192,1.00357
316,1625,3.31279,-0.0189185,0.296182,1.00324
325,1616,3.31169,-0.0196162,0.296616,1.00262
334,1607,3.3117,-0.0209651,0.297082,1.0018
343,1598,3.31076,-0.021733,0.297522,1.00118
352,1589,3.31235,-0.019049,0.296168,1.00059
361,1580,3.31186,-0.018756,0.296631,0.999309
370,1571,3.31111,-0.0187958,0.296623,0.999256
379,1562,3.3106,-0.0211422,0.297067,0.999125
388,1553,3.31247,-0.0173614,0.295733,0.997879
397,1544,3.31145,-0.0180918,0.296181,0.997289
406,1535,3.31166,-0.0187492,0.296184,0.997125
415,1526,3.31086,-0.019452,0.29664,0.996441
424,1517,3.30995,-0.0200877,0.29708,0.995865
433,1508,3.31201,-0.017457,0.295733,0.995275
442,1499,3.31132,-0.0188304,0.296209,0.994426
451,1490,3.31042,-0.0195378,0.296652,0.993845
460,1481,3.31009,-0.0203193,0.297102,0.993239
469,1472,3.31139,-0.0175409,0.295756,0.992714
478,1463,3.31087,-0.01835,0.296178,0.992012
487,1454,3.3106,-0.0189077,0.296179,0.991747
496,1445,3.30971,-0.0197243,0.296627,0.991088
505,1436,3.30972,-0.0203755,0.296621,0.990756
514,1427,3.3108,-0.0178232,0.295724,0.989897
523,1418,3.31053,-0.0183106,0.295726,0.989664
532,1409,3.30995,-0.0191627,0.296172,0.988987
541,1400,3.30917,-0.0205639,0.296649,0.988139
550,1391,3.31087,-0.017753,0.295281,0.987587
559,1382,3.31055,-0.0184912,0.295722,0.986941
568,1373,3.30955,-0.0192972,0.296198,0.986382
577,1364,3.30949,-0.0198836,0.296196,0.9861
586,1355,3.30846,-0.0206388,0.296649,0.98548
595,1346,3.30992,-0.0186223,0.295776,0.984399
604,1337,3.3097,-0.0192066,0.295778,0.984133
613,1328,3.30893,-0.0199996,0.296239,0.983515
622,1319,3.30933,-0.0180555,0.295896,0.982112
631,1310,3.30952,-0.0186532,0.29581,0.981843
640,1301,3.30903,-0.0194214,0.295809,0.981476
649,1292,3.30847,-0.0208204,0.296272,0.980568
658,1283,3.30992,-0.0181226,0.295358,0.979692
667,1274,3.30926,-0.0188496,0.295351,0.979323
676,1265,3.30811,-0.0196102,0.295814,0.978724
685,1256,3.3079,-0.0209824,0.296283,0.977844
694,1247,3.3092,-0.0182104,0.2949,0.977231
703,1238,3.3085,-0.0189027,0.295371,0.976683
712,1229,3.308,-0.0203424,0.295937,0.975785
721,1220,3.30741,-0.021058,0.29584,0.975425
730,1211,3.30841,-0.0190121,0.294936,0.974519
739,1202,3.30845,-0.0203737,0.295417,0.973433
748,1193,3.30688,-0.021223,0.295886,0.972791
757,1184,3.3084,-0.0184367,0.294473,0.97209
766,1175,3.30818,-0.019978,0.294958,0.969755
775,1166,3.30686,-0.0206535,0.295431,0.97063
784,1157,3.30815,-0.018681,0.294505,0.969339
793,1148,3.30796,-0.0192688,0.294608,0.969118
802,1139,3.30711,-0.0206861,0.295004,0.968257
811,1130,3.30806,-0.0185459,0.294074,0.966835
820,1121,3.3079,-0.0192435,0.294233,0.966716
829,1112,3.30721,-0.0207531,0.294542,0.965759
838,1103,3.30574,-0.0215885,0.295003,0.965087
847,1094,3.30804,-0.0193274,0.293651,0.964344
856,1085,3.3066,-0.020971,0.294591,0.963048
865,1076,3.30786,-0.018083,0.293342,0.9624
874,1067,3.30759,-0.0201922,0.293692,0.961295
883,1058,3.30642,-0.0209746,0.29417,0.960675
892,1049,3.30752,-0.018901,0.293246,0.959436
901,1040,3.30656,-0.0203423,0.293741,0.958579
910,1031,3.30621,-0.021804,0.294228,0.957686
919,1022,3.30673,-0.0190757,0.293301,0.956732
928,1013,3.30574,-0.0205644,0.293784,0.955806
937,1004,3.30548,-0.0219476,0.293789,0.955184
946,995,3.30662,-0.0198805,0.292852,0.953899
955,986,3.30522,-0.0206685,0.293481,0.953253
964,977,3.3068,-0.0186088,0.292431,0.952088
973,968,3.30583,-0.0199707,0.292907,0.951195
982,959,3.3047,-0.0214307,0.293383,0.950264
991,950,3.30604,-0.0192789,0.292502,0.949168
1000,941,3.30507,-0.0208945,0.292987,0.948165
1009,932,3.30388,-0.02251,0.294118,0.947155
1018,923,3.30515,-0.0201474,0.292564,0.94609
1027,914,3.30442,-0.0217939,0.293052,0.945079
1036,905,3.30533,-0.0197021,0.292124,0.943807
1045,896,3.30423,-0.0211995,0.292619,0.94289
1054,887,3.30378,-0.0225843,0.292628,0.942289
1063,878,3.30498,-0.0203404,0.291709,0.941111
1072,869,3.30368,-0.0219553,0.292218,0.940178
1081,860,3.305,-0.0196951,0.291295,0.937594
1090,851,3.30408,-0.0212843,0.291787,0.938013
1099,842,3.30511,-0.0191917,0.290865,0.936746
1108,833,3.30358,-0.0214207,0.291892,0.935345
1117,824,3.30312,-0.022918,0.291869,0.934611
1126,815,3.30368,-0.0208221,0.291442,0.933049
1135,806,3.30241,-0.022496,0.292036,0.932073
1144,797,3.30388,-0.0201153,0.290507,0.931126
1153,788,3.30308,-0.0217762,0.291005,0.930123
1162,779,3.30416,-0.0194532,0.290093,0.92897
1171,770,3.30249,-0.0218399,0.29113,0.927298
1180,761,3.30143,-0.0235295,0.291793,0.926458
1189,752,3.30266,-0.0212687,0.290698,0.9252
1198,743,3.30143,-0.0235991,0.291228,0.923988
1207,734,3.30228,-0.0212543,0.290293,0.922768
1216,725,3.30113,-0.0229748,0.290807,0.921772
1225,716,3.30259,-0.0213996,0.289884,0.920235
1234,707,3.30103,-0.0231057,0.290405,0.919249
1243,698,3.30146,-0.0208148,0.289996,0.917759
1252,689,3.30032,-0.023333,0.290525,0.916441
1261,680,3.30168,-0.0208653,0.289601,0.915287
1270,671,3.30022,-0.0233307,0.290125,0.913978
1279,662,3.3006,-0.0211109,0.289718,0.912422
1288,653,3.2994,-0.0235261,0.290266,0.9112
1297,644,3.30083,-0.0219812,0.28933,0.909607
1306,635,3.29954,-0.0235486,0.289861,0.908689
1315,626,3.29994,-0.0221416,0.289461,0.906776
1324,617,3.29836,-0.0245433,0.290006,0.905533
1333,608,3.29945,-0.0222413,0.289065,0.90424
1342,599,3.29827,-0.0247198,0.289603,0.902941
1351,590,3.29867,-0.0231857,0.289196,0.901033
1360,581,3.29981,-0.0217326,0.288264,0.899381
1369,572,3.29806,-0.0234505,0.288798,0.898392
1378,563,3.29846,-0.0219752,0.288405,0.89647
1387,554,3.29707,-0.024379,0.288969,0.895277
1396,545,3.29829,-0.0227125,0.288017,0.893656
1405,536,3.29612,-0.0254433,0.289104,0.891976
1414,527,3.29659,-0.0239546,0.28871,0.890023
1423,518,3.2976,-0.022377,0.288201,0.888444
1432,509,3.29573,-0.0249114,0.288327,0.887102
1441,500,3.29597,-0.0234094,0.287935,0.885126
1450,491,3.29634,-0.0227172,0.287562,0.882869
1459,482,3.29477,-0.0253251,0.288138,0.881593
1468,473,3.29501,-0.0245922,0.287913,0.87931
1477,464,3.29587,-0.0228962,0.286804,0.877665
1486,455,3.29348,-0.0264887,0.287972,0.875765
1495,446,3.29387,-0.0257572,0.287607,0.873499
1504,437,3.29473,-0.0240158,0.286658,0.871868
1513,428,3.29488,-0.0233082,0.286289,0.869557
1522,419,3.29239,-0.0269034,0.287467,0.867646
1531,410,3.29292,-0.0238848,0.286519,0.865348
1540,401,3.29269,-0.0322253,0.286154,0.863038
1549,392,3.29312,-0.0269024,0.284608,0.860682
1558,383,3.29442,-0.0213528,0.282499,0.858975
1567,374,3.29404,-0.0296468,0.282116,0.85647
1576,365,3.29236,-0.0273108,0.281525,0.85409
1585,356,3.29236,-0.0242852,0.28056,0.851748
1594,347,3.29283,-0.0289415,0.279052,0.849204
1603,338,3.29351,-0.0247847,0.277455,0.847411
1612,329,3.29376,-0.0225777,0.276483,0.844727
1621,320,3.29359,-0.0288165,0.275514,0.842382
1630,311,3.29434,-0.0241062,0.273969,0.839783
1639,302,3.29391,-0.0302611,0.272993,0.837494
1648,293,3.29161,-0.0302823,0.272977,0.835092
1657,284,3.29169,-0.0258167,0.271996,0.832078
1666,275,3.29216,-0.0318483,0.270461,0.83018
1675,266,3.2915,-0.0297394,0.270068,0.827227
1684,257,3.29192,-0.0251414,0.2685,0.824493
1693,248,3.29158,-0.0322844,0.267523,0.821903
1702,239,3.29145,-0.0291872,0.266539,0.819545
1711,230,3.29128,-0.0340909,0.264973,0.816866
1720,221,3.29155,-0.0292815,0.263396,0.814415
1729,212,3.29157,-0.0269587,0.262402,0.811526
1738,203,3.29144,-0.0318255,0.260811,0.808822
1747,194,3.29099,-0.0272697,0.259821,0.805793
1756,185,3.29075,-0.034686,0.258842,0.803217
1765,176,3.29084,-0.0323827,0.257845,0.800564
1774,167,3.29164,-0.0258722,0.255694,0.797548
1783,158,3.29071,-0.0335441,0.255274,0.794622
1792,149,3.29098,-0.0286006,0.25369,0.791949
1801,140,3.29062,-0.0361348,0.25268,0.789319
1810,131,3.29076,-0.0311983,0.251234,0.786652
1819,122,3.29066,-0.028842,0.250092,0.784008
1828,113,3.28937,-0.0366028,0.250021,0.781076
1837,104,3.28874,-0.0353786,0.249204,0.777756
1846,95,3.28951,-0.0277406,0.24717,0.775052
1855,86,3.29206,-0.0304905,0.244426,0.772079
1864,77,3.29205,-0.0254399,0.242799,0.769296
1873,68,3.29171,-0.0333096,0.241787,0.766698
1882,59,3.29181,-0.0281797,0.240186,0.764014
1891,50,3.29207,-0.0228138,0.23856,0.76135
1900,41,3.29097,-0.0321316,0.238106,0.758015
1909,32,3.29176,-0.0242318,0.235949,0.755345
1918,23,3.29066,-0.0348635,0.235459,0.75297
1927,14,3.29001,-0.0297874,0.234399,0.749693
1936,5,3.29056,-0.0255925,0.232801,0.746704
1938,3,3.28901,-0.0373783,0.233481,0.746069