Folder: MyBatteryML/hust_correlation_analysis/matrices (part 5)

File: HUST_2-2_cycle_feature_matrix.csv
cycle_number,rul,voltage,current,capacity,charge_capacity
1,2653,3.3312,-0.0122707,0.284108,1.04053
14,2640,3.31691,-0.0151876,0.289544,1.03072
27,2627,3.3169,-0.0152672,0.289004,1.02838
40,2614,3.31777,-0.0157016,0.288008,1.0272
53,2601,3.31872,-0.0145452,0.287033,1.02563
66,2588,3.31761,-0.0164602,0.287419,1.02436
79,2575,3.31864,-0.0153212,0.286469,1.02286
92,2562,3.3175,-0.0172141,0.286877,1.02167
105,2549,3.31868,-0.0160063,0.28594,1.02024
118,2536,3.31811,-0.0172324,0.286243,1.01959
131,2523,3.31909,-0.0153655,0.284976,1.01846
144,2510,3.31849,-0.0167,0.285381,1.01752
157,2497,3.31938,-0.0147387,0.284458,1.01651
170,2484,3.31899,-0.0154579,0.284449,1.01613
183,2471,3.31844,-0.0150953,0.284468,1.01512
196,2458,3.31941,-0.0131662,0.283507,1.01396
209,2445,3.3191,-0.0153895,0.28389,1.01381
222,2432,3.31829,-0.0168147,0.284341,1.01293
235,2419,3.31794,-0.0158096,0.283921,1.01242
248,2406,3.31956,-0.0148512,0.282906,1.01188
261,2393,3.31865,-0.0153874,0.283288,1.01123
274,2380,3.3183,-0.0162211,0.283303,1.01087
287,2367,3.31754,-0.0175968,0.283748,1.01005
300,2354,3.31912,-0.0149706,0.28234,1.00939
313,2341,3.31876,-0.016323,0.282785,1.00858
326,2328,3.31855,-0.0162671,0.282339,1.00877
339,2315,3.31803,-0.017625,0.282783,1.00795
352,2302,3.31905,-0.0151155,0.281811,1.00703
365,2289,3.31913,-0.0163053,0.281832,1.00654
378,2276,3.3182,-0.0171123,0.282238,1.00584
391,2263,3.31778,-0.017704,0.282267,1.00566
404,2250,3.31954,-0.0150625,0.28086,1.00502
417,2237,3.31905,-0.0164197,0.281317,1.00423
430,2224,3.31872,-0.0170806,0.281287,1.00381
443,2211,3.32057,-0.0127181,0.279513,1.00317
456,2198,3.31998,-0.0133308,0.2795,1.00282
469,2185,3.31958,-0.0146734,0.279942,1.00202
482,2172,3.31885,-0.0165236,0.280322,1.002
495,2159,3.31865,-0.0171389,0.280528,1.00173
508,2146,3.32002,-0.0152089,0.279439,1.00048
521,2133,3.3197,-0.0157504,0.279373,1.00032
534,2120,3.31929,-0.0162628,0.279347,0.999992
547,2107,3.31883,-0.0160263,0.279382,0.998964
560,2094,3.3182,-0.0179056,0.279768,0.998957
573,2081,3.32019,-0.0141289,0.27799,0.99801
586,2068,3.31926,-0.0166336,0.278812,0.9975
599,2055,3.31871,-0.0162406,0.278856,0.996578
612,2042,3.32038,-0.0134714,0.27745,0.996
625,2029,3.31972,-0.0146891,0.27789,0.995243
638,2016,3.31932,-0.0155889,0.277897,0.994828
651,2003,3.31898,-0.01624,0.277892,0.994498
664,1990,3.32014,-0.0136366,0.27691,0.993587
677,1977,3.32004,-0.014942,0.276908,0.992958
690,1964,3.3196,-0.0156198,0.277511,0.992596
703,1951,3.31864,-0.0164631,0.27733,0.991987
716,1938,3.31995,-0.0143479,0.276355,0.990874
729,1925,3.32021,-0.0149413,0.275936,0.990864
742,1912,3.31927,-0.0164058,0.276363,0.98993
755,1899,3.32042,-0.0136301,0.275981,0.98906
768,1886,3.32009,-0.0144342,0.275377,0.988707
781,1873,3.31979,-0.0151655,0.275679,0.988351
794,1860,3.31894,-0.0164807,0.276418,0.987271
807,1847,3.32073,-0.0138342,0.274381,0.986809
820,1834,3.32055,-0.014976,0.274375,0.986242
833,1821,3.31948,-0.0161083,0.274819,0.985506
846,1808,3.32131,-0.0137055,0.273392,0.984695
859,1795,3.32093,-0.0145212,0.273395,0.984308
872,1782,3.32021,-0.0158321,0.27445,0.983513
885,1769,3.31959,-0.0166327,0.273835,0.983121
898,1756,3.32106,-0.0144214,0.272857,0.982057
911,1743,3.32067,-0.0152445,0.272798,0.981641
924,1730,3.31987,-0.0166128,0.273282,0.98102
937,1717,3.32137,-0.0132679,0.271852,0.980388
950,1704,3.32098,-0.0146108,0.271865,0.979789
963,1691,3.32022,-0.0153483,0.272276,0.979152
976,1678,3.32007,-0.0166082,0.272295,0.978622
989,1665,3.32163,-0.0139301,0.270866,0.977924
1002,1652,3.32107,-0.0153179,0.271308,0.977074
1015,1639,3.32044,-0.0159951,0.27129,0.976696
1028,1626,3.32166,-0.013299,0.270302,0.975817
1041,1613,3.32136,-0.0146988,0.27032,0.975209
1054,1600,3.32058,-0.0163456,0.270773,0.97454
1067,1587,3.32005,-0.016849,0.270745,0.973944
1080,1574,3.32136,-0.0148034,0.269778,0.972848
1093,1561,3.32106,-0.0156367,0.269755,0.972355
1106,1548,3.32058,-0.0161784,0.269741,0.972068
1119,1535,3.322,-0.0141483,0.268744,0.970828
1132,1522,3.32098,-0.0149825,0.269178,0.970217
1145,1509,3.32075,-0.0162179,0.269176,0.969623
1158,1496,3.31997,-0.0170464,0.269607,0.969008
1171,1483,3.32177,-0.0148461,0.268196,0.968147
1184,1470,3.32068,-0.0155967,0.268618,0.967538
1197,1457,3.31988,-0.0170492,0.269056,0.966643
1210,1444,3.32157,-0.0143679,0.267638,0.965991
1223,1431,3.32079,-0.0156104,0.267727,0.965189
1236,1418,3.31999,-0.0171673,0.268504,0.964213
1249,1405,3.32176,-0.0150136,0.267093,0.96334
1262,1392,3.32085,-0.0157538,0.267512,0.962729
1275,1379,3.31993,-0.0173297,0.267963,0.961802
1288,1366,3.32157,-0.014454,0.266522,0.961176
1301,1353,3.32123,-0.0151443,0.26651,0.960803
1314,1340,3.32026,-0.0166745,0.26755,0.959807
1327,1327,3.32175,-0.0145571,0.265947,0.958672
1340,1314,3.32116,-0.0152261,0.265927,0.958286
1353,1301,3.32062,-0.0159226,0.265913,0.957708
1366,1288,3.31985,-0.0174085,0.266355,0.957005
1379,1275,3.32131,-0.0163308,0.265519,0.956472
1392,1262,3.32058,-0.0160242,0.265351,0.955459
1405,1249,3.31957,-0.019305,0.266214,0.954648
1418,1236,3.32066,-0.0161628,0.265251,0.953077
1431,1223,3.32012,-0.0168304,0.265232,0.952457
1444,1210,3.32135,-0.014734,0.264246,0.951293
1457,1197,3.320412,-0.01624152,0.264685,0.950359
1470,1184,3.31998,-0.0176007,0.264685,0.949748
1483,1171,3.32073,-0.0155509,0.264124,0.948281
1496,1158,3.32011,-0.0163015,0.264127,0.947945
1509,1145,3.31894,-0.0177461,0.264548,0.94697
1522,1132,3.32024,-0.0156771,0.263619,0.945689
1535,1119,3.31932,-0.0171638,0.264145,0.944776
1548,1106,3.32058,-0.014986,0.262966,0.943548
1561,1093,3.31961,-0.0165196,0.26344,0.942728
1574,1080,3.31884,-0.0179294,0.263423,0.942019
1587,1067,3.31956,-0.0157685,0.262863,0.940585
1600,1054,3.31842,-0.0173248,0.263309,0.939634
1613,1041,3.31935,-0.0151782,0.262279,0.938333
1626,1028,3.31793,-0.0175275,0.263188,0.936836
1639,1015,3.31945,-0.0152083,0.26173,0.935913
1652,1002,3.31788,-0.0175127,0.262638,0.934424
1665,989,3.31877,-0.0153659,0.261615,0.933152
1678,976,3.31733,-0.0176903,0.262532,0.931677
1691,963,3.31836,-0.0154439,0.261517,0.930468
1704,950,3.31659,-0.0178586,0.262434,0.928927
1717,937,3.31806,-0.0155386,0.26093,0.927872
1730,924,3.31618,-0.0179842,0.26184,0.926282
1743,911,3.31731,-0.016462,0.260825,0.924772
1756,898,3.31527,-0.0188556,0.26173,0.923159
1769,885,3.31654,-0.0152618,0.260248,0.92154
1782,872,3.31665,-0.0216842,0.259686,0.919713
1795,859,3.31494,-0.0229394,0.260154,0.917738
1808,846,3.31572,-0.0194722,0.259131,0.915836
1821,833,3.3166,-0.0158726,0.257615,0.914109
1834,820,3.31456,-0.0249751,0.258092,0.912196
1847,807,3.31511,-0.0216278,0.257049,0.910176
1860,794,3.31563,-0.0180646,0.256001,0.908216
1873,781,3.31424,-0.0185202,0.255992,0.906782
1886,768,3.31482,-0.0156811,0.255141,0.903047
1899,755,3.31476,-0.0230308,0.254381,0.90238
1912,742,3.31287,-0.0234982,0.254841,0.900705
1925,729,3.31368,-0.0186643,0.253342,0.898367
1938,716,3.31426,-0.0158406,0.252291,0.896082
1951,703,3.31458,-0.0224582,0.251236,0.894475
1964,690,3.3146,-0.0206211,0.25067,0.891615
1977,677,3.31265,-0.0189,0.250659,0.889879
1990,664,3.31326,-0.0169241,0.249635,0.887341
2003,651,3.31316,-0.0236192,0.249023,0.885436
2016,638,3.31343,-0.0208458,0.247966,0.883129
2029,625,3.31421,-0.014551,0.245983,0.880354
2042,612,3.31196,-0.0179599,0.246907,0.878443
2055,599,3.31203,-0.0233963,0.245848,0.876215
2068,586,3.31249,-0.0205308,0.244965,0.873905
2081,573,3.31282,-0.0176744,0.24373,0.871672
2094,560,3.31238,-0.0241917,0.243118,0.868743
2107,547,3.31272,-0.0213362,0.242038,0.866396
2120,534,3.31343,-0.0170495,0.240524,0.86379
2133,521,3.31096,-0.0182769,0.240967,0.861777
2146,508,3.31037,-0.0249271,0.240377,0.858915
2159,495,3.31047,-0.024239,0.239769,0.856722
2172,482,3.31059,-0.0234747,0.239154,0.854517
2185,469,3.31106,-0.0191156,0.237592,0.851784
2198,456,3.31016,-0.0249643,0.236967,0.849195
2211,443,3.31059,-0.022876,0.235871,0.846533
2224,430,3.31086,-0.0176107,0.234366,0.844167
2237,417,3.3112,-0.0154245,0.233211,0.841532
2250,404,3.3104,-0.0223502,0.232584,0.838582
2263,391,3.31078,-0.0178465,0.231013,0.835892
2276,378,3.31092,-0.0156189,0.22991,0.833286
2289,365,3.31064,-0.0224485,0.228803,0.830656
2302,352,3.3103,-0.0203668,0.228169,0.827768
2315,339,3.3106,-0.0158194,0.226592,0.825064
2328,326,3.30984,-0.0228412,0.226119,0.82213
2341,313,3.30994,-0.0206509,0.224824,0.819506
2354,300,3.3098,-0.0170155,0.223704,0.816187
2367,287,3.30944,-0.0240248,0.222576,0.813551
2380,274,3.30949,-0.0218101,0.221437,0.810866
2393,261,3.30982,-0.0171757,0.219844,0.808164
2406,248,3.30905,-0.0252372,0.219181,0.804957
2419,235,3.30892,-0.0228926,0.218028,0.802304
2432,222,3.30844,-0.0287511,0.216904,0.799018
2445,209,3.30759,-0.0289756,0.216689,0.796162
2458,196,3.30781,-0.0242852,0.21507,0.793418
2471,183,3.30819,-0.0204422,0.213653,0.790446
2484,170,3.31,-0.0239811,0.21116,0.78688
2497,157,3.31015,-0.0192226,0.209529,0.78411
2510,144,3.30949,-0.0253569,0.208398,0.78083
2523,131,3.3097,-0.0212799,0.206757,0.777798
2536,118,3.30873,-0.0298068,0.206041,0.774537
2549,105,3.31213,-0.0185399,0.202349,0.771143
2562,92,3.31108,-0.027055,0.201026,0.768124
2575,79,3.31037,-0.0282757,0.20134,0.764727
2588,66,3.31045,-0.0219195,0.199854,0.761298
2601,53,3.31067,-0.0294198,0.198215,0.758949
2614,40,3.31114,-0.0228998,0.195959,0.755824
2627,27,3.31441,-0.019845,0.191816,0.752031
2640,14,3.31563,-0.0217139,0.188443,0.748967
2651,3,3.31638,-0.0252188,0.185965,0.746036

File: HUST_2-3_cycle_feature_matrix.csv
cycle_number,rul,voltage,current,capacity,charge_capacity
1,1753,3.30908,0.0315151,0.335093,1.04698
9,1745,3.29807,-0.0135184,0.352223,1.02019
17,1737,3.30227,-0.0109028,0.347919,1.02808
25,1729,3.3042,-0.0102444,0.345393,1.03195
33,1721,3.30529,-0.0113039,0.343794,1.03429
41,1713,3.30655,-0.0107471,0.34245,1.03515
49,1705,3.30773,-0.0100192,0.341478,1.03611
57,1697,3.30787,-0.0106667,0.340667,1.03584
65,1689,3.30785,-0.0106625,0.340222,1.03602
73,1681,3.30795,-0.0117782,0.339789,1.03548
81,1673,3.30961,-0.00952253,0.338672,1.03492
89,1665,3.30946,-0.010099,0.338668,1.03454
97,1657,3.30942,-0.0111242,0.338676,1.03391
105,1649,3.30893,-0.0116967,0.338666,1.03351
113,1641,3.30994,-0.00956338,0.337994,1.03273
121,1633,3.30942,-0.0106766,0.338431,1.03185
129,1625,3.30856,-0.0113043,0.338862,1.03126
137,1617,3.31065,-0.00893248,0.337323,1.03095
145,1609,3.31031,-0.0100897,0.337769,1.03007
153,1601,3.30966,-0.0106823,0.338208,1.02954
161,1593,3.30922,-0.0112321,0.338649,1.02904
169,1585,3.31007,-0.0095443,0.337978,1.02792
177,1577,3.30989,-0.0100568,0.338075,1.02759
185,1569,3.30921,-0.0107271,0.338412,1.02697
193,1561,3.30853,-0.0114038,0.338954,1.02638
201,1553,3.30832,-0.0119093,0.338495,1.02606
209,1545,3.30966,-0.00958896,0.338183,1.02537
217,1537,3.30942,-0.0101372,0.338165,1.02493
225,1529,3.30866,-0.0107427,0.33859,1.02433
233,1521,3.308,-0.0114197,0.339108,1.0237
241,1513,3.30773,-0.0119152,0.339019,1.02338
249,1505,3.30884,-0.0102886,0.338353,1.02224
257,1497,3.30816,-0.0108979,0.3388,1.0217
265,1489,3.30758,-0.0115281,0.339599,1.02111
273,1481,3.30757,-0.012016,0.338805,1.021
281,1473,3.3087,-0.00976745,0.338128,1.02022
289,1465,3.30828,-0.0103359,0.338565,1.01966
297,1457,3.30834,-0.0114925,0.338682,1.01899
305,1449,3.30793,-0.0114497,0.338575,1.01899
313,1441,3.30738,-0.0120417,0.339015,1.01843
321,1433,3.30863,-0.010174,0.338366,1.01748
329,1425,3.30791,-0.0109753,0.338804,1.0167
337,1417,3.30736,-0.0116365,0.339973,1.01618
345,1409,3.30754,-0.0120552,0.33882,1.01613
353,1401,3.30853,-0.00976105,0.338145,1.01535
361,1393,3.30809,-0.0104063,0.338602,1.0148
369,1385,3.30743,-0.0110362,0.338716,1.01426
377,1377,3.30677,-0.0116471,0.339503,1.01368
385,1369,3.30668,-0.0122766,0.339516,1.01332
393,1361,3.30787,-0.00989086,0.338855,1.01263
401,1353,3.30729,-0.0105348,0.339307,1.01206
409,1345,3.30713,-0.0111294,0.339411,1.0117
417,1337,3.30643,-0.0117044,0.339764,1.01117
425,1329,3.30619,-0.0122484,0.339836,1.01078
433,1321,3.30736,-0.0100279,0.339094,1.00999
441,1313,3.30725,-0.0105679,0.339085,1.00962
449,1305,3.30667,-0.0111826,0.339535,1.00905
457,1297,3.30636,-0.0117815,0.33955,1.00872
465,1289,3.30574,-0.012366,0.340002,1.00817
473,1281,3.3073,-0.00999787,0.338873,1.00758
481,1273,3.30677,-0.0106404,0.339346,1.00707
489,1265,3.30652,-0.0111746,0.339338,1.0067
497,1257,3.30592,-0.011848,0.339784,1.00609
505,1249,3.30559,-0.0124393,0.339804,1.00578
513,1241,3.30691,-0.0100074,0.339132,1.00505
521,1233,3.30665,-0.0106123,0.339131,1.00467
529,1225,3.30615,-0.011226,0.339719,1.0042
537,1217,3.30567,-0.0118032,0.340807,1.00369
545,1209,3.3053,-0.0123799,0.340083,1.00334
553,1201,3.3072,-0.00990847,0.338967,1.00285
561,1193,3.30704,-0.0104567,0.338971,1.00254
569,1185,3.30614,-0.0111614,0.33943,1.00192
577,1177,3.30562,-0.0118187,0.340624,1.00135
585,1169,3.30669,-0.00948925,0.339232,1.00056
593,1161,3.3065,-0.010073,0.339224,1.00018
601,1153,3.30604,-0.0112707,0.340059,0.999292
609,1145,3.30572,-0.0118394,0.339624,0.999055
617,1137,3.305088,-0.0125378,0.340254,0.998322
625,1129,3.30675,-0.0100586,0.339031,0.997803
633,1121,3.30596,-0.0106517,0.339496,0.997267
641,1113,3.30511,-0.0113922,0.340065,0.996648
649,1105,3.3046,-0.0125685,0.340447,0.995797
657,1097,3.30558,-0.0101486,0.339784,0.993608
665,1089,3.30519,-0.010801,0.339781,0.994622
673,1081,3.305,-0.0113743,0.339769,0.994249
681,1073,3.30472,-0.0119566,0.339773,0.99391
689,1065,3.30578,-0.00960406,0.339115,0.993108
697,1057,3.30544,-0.010814,0.339591,0.992216
705,1049,3.30521,-0.0114079,0.339591,0.990431
713,1041,3.30516,-0.0119259,0.339584,0.991532
721,1033,3.30566,-0.00964574,0.339292,0.990681
729,1025,3.30493,-0.0108357,0.33939,0.989751
737,1017,3.30431,-0.0116,0.339858,0.989087
745,1009,3.30369,-0.0127115,0.340358,0.988339
753,1001,3.30529,-0.0102759,0.339204,0.987739
761,993,3.30452,-0.0110421,0.339676,0.987016
769,985,3.3045,-0.012088,0.339696,0.986468
777,977,3.30336,-0.0127756,0.340167,0.985859
785,969,3.30455,-0.0103658,0.339505,0.985049
793,961,3.30373,-0.0115935,0.339995,0.984177
801,953,3.30318,-0.0128405,0.340475,0.98352
809,945,3.30467,-0.0103254,0.33934,0.982694
817,937,3.30451,-0.010927,0.340077,0.98235
825,929,3.30297,-0.0123134,0.340305,0.981173
833,921,3.30249,-0.0128841,0.3403,0.98081
841,913,3.30411,-0.0104243,0.339162,0.980213
849,905,3.30309,-0.0117009,0.340133,0.979126
857,897,3.30269,-0.0123414,0.340127,0.978706
865,889,3.30309,-0.0111334,0.339978,0.97706
873,881,3.30235,-0.0117809,0.34046,0.976496
881,873,3.30201,-0.0124872,0.340454,0.976046
889,865,3.30378,-0.0103964,0.339317,0.975229
897,857,3.30226,-0.0118312,0.340294,0.974021
905,849,3.3017,-0.0124553,0.340291,0.973635
913,841,3.30303,-0.0105908,0.339635,0.972718
921,833,3.30226,-0.0118081,0.340137,0.971878
929,825,3.30108,-0.0125316,0.340633,0.97103
937,817,3.30233,-0.0106559,0.339997,0.969928
945,809,3.30172,-0.0119495,0.340494,0.968993
953,801,3.30053,-0.013266,0.340976,0.968006
961,793,3.30167,-0.0113629,0.340342,0.966886
969,785,3.30107,-0.0126276,0.340844,0.966007
977,777,3.3001,-0.0133392,0.3409,0.965531
985,769,3.30069,-0.0115298,0.340678,0.964133
993,761,3.3006,-0.0126919,0.34068,0.963461
1001,753,3.30124,-0.0108639,0.340024,0.962216
1009,745,3.30029,-0.0115767,0.340519,0.96162
1017,737,3.29968,-0.0134362,0.341043,0.960427
1025,729,3.29992,-0.0116072,0.340893,0.958995
1033,721,3.2992,-0.0129887,0.341403,0.958033
1041,713,3.29984,-0.0110112,0.340774,0.956936
1049,705,3.29948,-0.0122296,0.340773,0.95623
1057,697,3.30033,-0.0103042,0.340129,0.955044
1065,689,3.29894,-0.0123864,0.341156,0.953545
1073,681,3.29776,-0.0136647,0.341672,0.952627
1081,673,3.29867,-0.0117285,0.341039,0.951482
1089,665,3.29793,-0.0136862,0.341553,0.950182
1097,657,3.29871,-0.0116917,0.340923,0.949038
1105,649,3.29768,-0.0131124,0.34144,0.94805
1113,641,3.2979,-0.0119133,0.341324,0.94628
1121,633,3.29639,-0.0139763,0.342384,0.944804
1129,625,3.29715,-0.0119866,0.341746,0.943623
1137,617,3.29572,-0.0139748,0.342273,0.942315
1145,609,3.29674,-0.0126893,0.342172,0.940592
1153,601,3.29721,-0.0113205,0.341542,0.939059
1161,593,3.29549,-0.0134637,0.342608,0.937519
1169,585,3.29655,-0.0120989,0.341982,0.935982
1177,577,3.29438,-0.0142585,0.343043,0.934405
1185,569,3.29499,-0.0129001,0.34241,0.932832
1193,561,3.29587,-0.0108486,0.341785,0.931662
1201,553,3.29405,-0.0136537,0.342875,0.929776
1209,545,3.29396,-0.0123354,0.342785,0.92798
1217,537,3.2946,-0.0117337,0.342147,0.925936
1225,529,3.29289,-0.0139663,0.343244,0.924373
1233,521,3.29296,-0.0186046,0.343392,0.922157
1241,513,3.29374,-0.01428,0.341002,0.920014
1249,505,3.29367,-0.0112013,0.340279,0.918112
1257,497,3.29181,-0.019974,0.340831,0.915805
1265,489,3.29243,-0.0168347,0.339659,0.914103
1273,481,3.29278,-0.0132599,0.339044,0.911226
1281,473,3.29314,-0.0179463,0.337882,0.907985
1289,465,3.29304,-0.0144051,0.337271,0.906299
1297,457,3.29323,-0.0101975,0.336111,0.903923
1305,449,3.2927,-0.0166841,0.336048,0.901834
1313,441,3.29032,-0.0185826,0.337158,0.899248
1321,433,3.29113,-0.0141298,0.335437,0.897137
1329,425,3.29081,-0.0189101,0.334827,0.894923
1337,417,3.29101,-0.0171406,0.334217,0.892307
1345,409,3.29139,-0.0134644,0.333055,0.889609
1353,401,3.29072,-0.0190478,0.333717,0.886811
1361,393,3.29127,-0.016546,0.331837,0.884726
1369,385,3.29105,-0.0185157,0.330808,0.881758
1377,377,3.29108,-0.0177073,0.330059,0.879754
1385,369,3.29084,-0.0141105,0.32945,0.876809
1393,361,3.29078,-0.0116901,0.328846,0.874491
1401,353,3.29085,-0.0151796,0.327689,0.871924
1409,345,3.28813,-0.017315,0.32879,0.869184
1417,337,3.28892,-0.0126887,0.32707,0.867094
1425,329,3.28889,-0.0183465,0.326477,0.864513
1433,321,3.28875,-0.0146125,0.325876,0.860332
1441,313,3.28854,-0.01962,0.326043,0.85938
1449,305,3.28929,-0.0139347,0.323562,0.856539
1457,297,3.28932,-0.0120486,0.322961,0.853925
1465,289,3.28894,-0.0170458,0.322364,0.851702
1473,281,3.28884,-0.0151412,0.321765,0.849103
1481,273,3.28902,-0.0105585,0.320606,0.846726
1489,265,3.28836,-0.017622,0.320567,0.844584
1497,257,3.28908,-0.0118195,0.318859,0.841758
1505,249,3.2863,-0.0215732,0.319978,0.839173
1513,241,3.28752,-0.014938,0.317707,0.836886
1521,233,3.28701,-0.0131386,0.317676,0.834073
1529,225,3.28626,-0.0201841,0.317636,0.83197
1537,217,3.28702,-0.0136097,0.315931,0.829476
1545,209,3.28765,-0.0108658,0.314783,0.827438
1553,201,3.28744,-0.0148261,0.314193,0.824356
1561,193,3.28838,-0.00998615,0.312519,0.822408
1569,185,3.28558,-0.0210366,0.313605,0.820792
1577,177,3.28551,-0.0184223,0.31302,0.818266
1585,169,3.28551,-0.0137654,0.311858,0.815834
1593,161,3.28629,-0.0168221,0.310156,0.813712
1601,153,3.28667,-0.0129026,0.309759,0.81093
1609,145,3.28421,-0.0221327,0.309913,0.808874
1617,137,3.28431,-0.0172876,0.308413,0.806838
1625,129,3.285,-0.0124932,0.30671,0.804372
1633,121,3.28485,-0.0177099,0.306208,0.802132
1641,113,3.28507,-0.0150658,0.305535,0.799867
1649,105,3.285478,-0.0169765,0.303846,0.797031
1657,97,3.28372,-0.0181701,0.303839,0.795182
1665,89,3.28326,-0.0153745,0.303214,0.792977
1673,81,3.28334,-0.0187301,0.302154,0.790597
1681,73,3.28371,-0.0139164,0.301352,0.788198
1689,65,3.28391,-0.0191293,0.29985,0.78616
1697,57,3.28489,-0.0122753,0.297626,0.783778
1705,49,3.28243,-0.013538,0.298176,0.78178
1713,41,3.28218,-0.0208022,0.297592,0.779933
1721,33,3.28232,-0.0139432,0.296005,0.777356
1729,25,3.28241,-0.0191519,0.294788,0.775353
1737,17,3.28287,-0.012361,0.293117,0.772738
1745,9,3.28051,-0.021713,0.293111,0.770898
1751,3,3.2814,-0.0180647,0.291988,0.769227