Folder: MyBatteryML/hust_correlation_analysis/matrices (part 21)

File: HUST_6-3_cycle_feature_matrix.csv
cycle_number,rul,voltage,current,capacity,charge_capacity
1,1806,3.32349,0.0288637,0.271273,1.02902
10,1797,3.3102,-0.0130418,0.285357,1.0058
19,1788,3.31269,-0.016712,0.283609,1.01365
28,1779,3.31385,-0.0178458,0.282477,1.01643
37,1770,3.31549,-0.0164705,0.28081,1.01803
46,1761,3.31668,-0.0150199,0.279574,1.01946
55,1752,3.31776,-0.0155998,0.279161,1.0194
64,1743,3.31658,-0.0169326,0.279642,1.01874
73,1734,3.3169,-0.0175695,0.278753,1.01865
82,1725,3.31794,-0.0163258,0.278271,1.01719
91,1716,3.31745,-0.0170225,0.277785,1.01682
100,1707,3.31879,-0.0145358,0.27682,1.01597
109,1698,3.31816,-0.016397,0.276821,1.01505
118,1689,3.31746,-0.017075,0.277224,1.01447
127,1680,3.31872,-0.0152072,0.276259,1.01329
136,1671,3.31862,-0.0164005,0.276261,1.01271
145,1662,3.31768,-0.0171071,0.276663,1.0121
154,1653,3.31929,-0.0152509,0.275697,1.01094
163,1644,3.31851,-0.01651,0.276106,1.01008
172,1635,3.31794,-0.0171196,0.276105,1.00977
181,1626,3.31888,-0.0148286,0.275546,1.00857
190,1617,3.3187,-0.0159759,0.275956,1.00776
199,1608,3.31831,-0.0166655,0.275957,1.00769
208,1599,3.31759,-0.0179423,0.276368,1.00657
217,1590,3.31868,-0.0154144,0.2754,1.00572
226,1581,3.31781,-0.0161086,0.275812,1.00513
235,1572,3.31698,-0.0174641,0.276225,1.00424
244,1563,3.31648,-0.0181713,0.27664,1.00365
253,1554,3.31614,-0.0181088,0.276634,1.00366
262,1545,3.31754,-0.0156075,0.276075,1.00252
271,1536,3.31653,-0.0162469,0.27649,1.00058
280,1527,3.31594,-0.0170422,0.27691,1.00133
289,1518,3.3157,-0.0181774,0.276072,1.00126
298,1509,3.31648,-0.0156527,0.275516,1.00012
307,1500,3.3169,-0.0169249,0.275515,0.999512
316,1491,3.31715,-0.0176508,0.275521,0.999195
325,1482,3.31582,-0.0183364,0.275931,0.998591
334,1473,3.31721,-0.0157197,0.274956,0.997749
343,1464,3.31628,-0.0171373,0.275378,0.995471
352,1455,3.31616,-0.0177144,0.275372,0.996546
361,1446,3.3161,-0.0184269,0.275372,0.996192
370,1437,3.31736,-0.0164682,0.274395,0.995036
379,1428,3.31644,-0.0171474,0.274817,0.994464
388,1419,3.31586,-0.0180017,0.275243,0.993832
397,1410,3.31612,-0.0184393,0.274818,0.993855
406,1401,3.31819,-0.0157316,0.273416,0.993266
415,1392,3.31727,-0.016552,0.27384,0.99266
424,1383,3.31592,-0.0179934,0.274683,0.991464
433,1374,3.31605,-0.0185889,0.27468,0.991193
442,1365,3.31712,-0.0159445,0.273702,0.990337
451,1356,3.317,-0.016593,0.273707,0.990057
460,1347,3.31655,-0.01729,0.2737,0.989691
469,1338,3.31642,-0.0186516,0.27434,0.98882
478,1329,3.31793,-0.0152373,0.272716,0.988538
487,1320,3.31704,-0.0166293,0.273141,0.987629
496,1311,3.3158,-0.017588,0.273994,0.986704
505,1302,3.31554,-0.0181638,0.273993,0.986424
514,1293,3.31534,-0.0187196,0.273989,0.986155
523,1284,3.31657,-0.0161565,0.273009,0.985252
532,1275,3.31635,-0.0167875,0.273007,0.984959
541,1266,3.31602,-0.0175703,0.273432,0.984336
550,1257,3.31517,-0.0188964,0.273436,0.983718
559,1248,3.31632,-0.0162243,0.272446,0.982832
568,1239,3.31546,-0.0168993,0.272872,0.982268
577,1230,3.31591,-0.0182936,0.272874,0.981623
586,1221,3.31482,-0.0190469,0.273302,0.981027
595,1212,3.31653,-0.0162308,0.271879,0.980432
604,1203,3.31581,-0.0177358,0.272747,0.979276
613,1194,3.31498,-0.0183732,0.272746,0.978973
622,1185,3.31563,-0.0164269,0.272189,0.977505
631,1176,3.31556,-0.0170712,0.272192,0.977215
640,1167,3.31581,-0.0126186,0.271093,0.976585
649,1158,3.31498,-0.0135501,0.271525,0.975904
658,1149,3.31456,-0.0151104,0.271963,0.974942
667,1140,3.31644,-0.0122864,0.270532,0.974347
676,1131,3.31541,-0.0133061,0.270962,0.97361
685,1122,3.31579,-0.0165679,0.271077,0.972685
694,1113,3.31677,-0.0115835,0.269962,0.972254
703,1104,3.315,-0.017942,0.271279,0.972017
712,1095,3.31371,-0.0194315,0.271945,0.970849
721,1086,3.31531,-0.0173821,0.27095,0.969638
730,1077,3.31446,-0.0180877,0.270944,0.969317
739,1068,3.31326,-0.0195482,0.271827,0.968169
748,1059,3.31525,-0.0174371,0.27039,0.96723
757,1050,3.31443,-0.0180782,0.270386,0.966922
766,1041,3.31303,-0.0196208,0.271266,0.965726
775,1032,3.3148,-0.0168586,0.270264,0.964815
784,1023,3.31384,-0.0183193,0.270709,0.963917
793,1014,3.31312,-0.0196905,0.270707,0.963295
802,1005,3.31401,-0.0169935,0.269707,0.962346
811,996,3.31344,-0.0184246,0.270155,0.961474
820,987,3.31288,-0.0198689,0.270597,0.960566
829,978,3.31344,-0.0177462,0.269593,0.959364
838,969,3.3127,-0.0185907,0.270041,0.958736
847,960,3.31172,-0.0200681,0.270486,0.957794
856,951,3.31398,-0.0178043,0.269036,0.956923
865,942,3.31216,-0.0194434,0.269932,0.95568
874,933,3.31376,-0.0173022,0.268923,0.954461
883,924,3.31259,-0.0188014,0.269374,0.953551
892,915,3.31247,-0.0201913,0.269374,0.952931
901,906,3.31253,-0.0181518,0.269024,0.95141
910,897,3.31204,-0.0196192,0.26927,0.950524
919,888,3.31324,-0.0175127,0.268263,0.949285
928,879,3.31165,-0.0189317,0.268715,0.948395
937,870,3.31053,-0.0204972,0.269169,0.947456
946,861,3.31202,-0.0182519,0.26816,0.946263
955,852,3.31052,-0.0197662,0.268618,0.945349
964,843,3.31288,-0.0174947,0.267141,0.944395
973,834,3.31056,-0.0190874,0.268145,0.943206
982,825,3.30891,-0.0208189,0.268988,0.941964
991,816,3.31077,-0.0183903,0.267505,0.941064
1000,807,3.30888,-0.0202041,0.268429,0.939777
1009,798,3.31123,-0.0185226,0.266949,0.938576
1018,789,3.30913,-0.0202348,0.267876,0.937325
1027,780,3.31081,-0.0179403,0.266386,0.936351
1036,771,3.30999,-0.0201694,0.267326,0.93492
1045,762,3.30987,-0.0180635,0.266297,0.933593
1054,753,3.30974,-0.0196701,0.266761,0.93265
1063,744,3.3099,-0.0182077,0.266209,0.930812
1072,735,3.30889,-0.0197405,0.266682,0.929913
1081,726,3.30879,-0.0183898,0.266127,0.928018
1090,717,3.31037,-0.0143462,0.265122,0.926958
1099,708,3.30782,-0.0161147,0.265868,0.925706
1108,699,3.30837,-0.0200812,0.265571,0.924832
1117,690,3.30775,-0.0186066,0.265499,0.922736
1126,681,3.30919,-0.0145814,0.264273,0.92164
1135,672,3.30804,-0.0193903,0.264942,0.919919
1144,663,3.30701,-0.0210952,0.26542,0.918949
1153,654,3.30771,-0.0195366,0.264589,0.917364
1162,645,3.30545,-0.0220567,0.265351,0.915791
1171,636,3.30665,-0.0205745,0.264798,0.913908
1180,627,3.30703,-0.018205,0.264268,0.912643
1189,618,3.30635,-0.0206955,0.264247,0.91138
1198,609,3.30642,-0.0199385,0.263691,0.909422
1207,600,3.30428,-0.0216001,0.264179,0.908226
1216,591,3.30562,-0.0208743,0.263631,0.906017
1225,582,3.30623,-0.0193775,0.262587,0.904387
1234,573,3.30472,-0.0218304,0.263073,0.903106
1243,564,3.30431,-0.0211929,0.26302,0.900586
1252,555,3.3047,-0.0195782,0.261968,0.898974
1261,546,3.30358,-0.0230464,0.263047,0.897059
1270,537,3.30386,-0.0202096,0.261917,0.894734
1279,528,3.3031,-0.0186632,0.261364,0.892827
1288,519,3.30468,-0.0219213,0.259301,0.890837
1297,510,3.30505,-0.0190631,0.258238,0.888503
1306,501,3.30209,-0.0203659,0.258737,0.886515
1315,492,3.30272,-0.0265075,0.257673,0.88405
1324,483,3.30447,-0.0149799,0.254785,0.881368
1333,474,3.30222,-0.0183765,0.255796,0.879744
1342,465,3.30393,-0.0246146,0.253962,0.876918
1351,456,3.30271,-0.0178011,0.252627,0.874333
1360,447,3.30245,-0.0276038,0.251597,0.872631
1369,438,3.30306,-0.0232351,0.250309,0.869938
1378,429,3.30287,-0.0229671,0.249722,0.867512
1387,420,3.30367,-0.0243507,0.247646,0.865044
1396,411,3.30211,-0.0245483,0.247555,0.862201
1405,402,3.30391,-0.0213976,0.245968,0.860201
1414,393,3.30241,-0.0283292,0.245373,0.857238
1423,384,3.30285,-0.026173,0.244285,0.854631
1432,375,3.30235,-0.0203292,0.242755,0.851253
1441,366,3.3024,-0.0194424,0.241589,0.849301
1450,357,3.30141,-0.0263707,0.240984,0.846386
1459,348,3.30222,-0.0219382,0.239387,0.84366
1468,339,3.30245,-0.0241406,0.237295,0.8409
1477,330,3.30245,-0.0243427,0.236675,0.838299
1486,321,3.30269,-0.0275284,0.235072,0.834923
1495,312,3.30261,-0.0267803,0.233961,0.832975
1504,303,3.3025,-0.0207227,0.232355,0.829595
1513,294,3.30211,-0.020039,0.231725,0.827368
1522,285,3.30201,-0.0232603,0.230113,0.823952
1531,276,3.30219,-0.0210939,0.228988,0.821294
1540,267,3.30255,-0.0257671,0.227539,0.817204
1549,258,3.30163,-0.023628,0.227227,0.815656
1558,249,3.30175,-0.0212791,0.225587,0.813041
1567,240,3.30206,-0.0285592,0.224456,0.810408
1576,231,3.30259,-0.0213243,0.222348,0.807646
1585,222,3.30226,-0.0206302,0.221682,0.805371
1594,213,3.30181,-0.0277557,0.220535,0.802789
1603,204,3.30452,-0.0155534,0.217417,0.800096
1612,195,3.30369,-0.0213972,0.216257,0.796544
1621,186,3.30347,-0.0205619,0.215566,0.794532
1630,177,3.30329,-0.0204571,0.214957,0.791843
1639,168,3.30147,-0.0279971,0.214395,0.789297
1648,159,3.30317,-0.0224718,0.212301,0.786681
1657,150,3.30302,-0.0225926,0.211598,0.78411
1666,141,3.30272,-0.0291179,0.210273,0.781813
1675,132,3.29895,-0.0344733,0.211697,0.779228
1684,123,3.30036,-0.0244631,0.209392,0.77636
1693,114,3.29923,-0.0234715,0.208377,0.774145
1702,105,3.30106,-0.0285626,0.206718,0.771425
1711,96,3.30038,-0.0278593,0.206,0.76915
1720,87,3.30133,-0.0228296,0.204341,0.766465
1729,78,3.30121,-0.0304056,0.203138,0.763874
1738,69,3.30089,-0.0270115,0.201934,0.761536
1747,60,3.30217,-0.0321179,0.200262,0.758862
1756,51,3.30185,-0.0271173,0.198607,0.756119
1765,42,3.30215,-0.0236595,0.197374,0.753788
1774,33,3.30224,-0.0237566,0.196619,0.751241
1783,24,3.30298,-0.0290346,0.194937,0.748533
1792,15,3.30109,-0.0282299,0.194914,0.745808
1801,6,3.29934,-0.0325725,0.195096,0.744373
1804,3,3.30135,-0.0267424,0.193398,0.743015

File: HUST_6-4_cycle_feature_matrix.csv
cycle_number,rul,voltage,current,capacity,charge_capacity
1,1719,3.32354,-0.0224097,0.275359,0.996752
9,1711,3.31221,-0.025791,0.279195,0.990387
17,1703,3.31353,-0.0250582,0.277713,0.988878
25,1695,3.315,-0.0229932,0.276231,0.987951
33,1687,3.31393,-0.0243085,0.276703,0.987341
41,1679,3.31359,-0.0258686,0.276202,0.986874
49,1671,3.31479,-0.0230455,0.27516,0.985725
57,1663,3.31424,-0.0244355,0.275158,0.985121
65,1655,3.31385,-0.0259652,0.275604,0.984215
73,1647,3.31324,-0.0266265,0.275599,0.983914
81,1639,3.31523,-0.0237837,0.274118,0.983304
89,1631,3.31553,-0.0253023,0.274406,0.982701
97,1623,3.31498,-0.0258714,0.274125,0.982443
105,1615,3.3138,-0.0267661,0.274566,0.981775
113,1607,3.31619,-0.0239691,0.273095,0.981191
121,1599,3.31611,-0.0253082,0.273089,0.980416
129,1591,3.31531,-0.0253423,0.273088,0.980592
137,1583,3.31497,-0.0260345,0.273081,0.98027
145,1575,3.31724,-0.0239289,0.271615,0.979388
153,1567,3.31712,-0.0238857,0.271604,0.979377
161,1559,3.31589,-0.0246746,0.272144,0.978772
169,1551,3.31593,-0.0254734,0.272052,0.97845
177,1543,3.31496,-0.0262102,0.272504,0.9779
185,1535,3.3148,-0.0269773,0.272503,0.977563
193,1527,3.31718,-0.0240886,0.271116,0.976964
201,1519,3.3175,-0.024752,0.27102,0.976689
209,1511,3.31682,-0.0255169,0.27102,0.97636
217,1503,3.31593,-0.0263265,0.271465,0.97575
225,1495,3.31661,-0.0262164,0.271016,0.976048
233,1487,3.31538,-0.0270376,0.271452,0.975397
241,1479,3.31738,-0.0241486,0.269972,0.974831
249,1471,3.31741,-0.0248339,0.269972,0.974534
257,1463,3.31692,-0.0255624,0.27042,0.973976
265,1455,3.31622,-0.0255904,0.270418,0.973956
273,1447,3.31622,-0.0263244,0.270502,0.973592
281,1439,3.31521,-0.02611,0.270827,0.973352
289,1431,3.31489,-0.0270042,0.271271,0.972697
297,1423,3.31695,-0.02348,0.269346,0.972643
305,1415,3.31658,-0.0242671,0.269345,0.972292
313,1407,3.31646,-0.0250287,0.269352,0.972261
321,1399,3.31699,-0.0256042,0.268906,0.97203
329,1391,3.31592,-0.0263416,0.269348,0.971448
337,1383,3.31498,-0.0273108,0.269797,0.970779
345,1375,3.31788,-0.0243255,0.267871,0.970506
353,1367,3.31736,-0.0242135,0.267863,0.970512
361,1359,3.31749,-0.0249532,0.267857,0.970182
369,1351,3.31705,-0.0257103,0.267868,0.969896
377,1343,3.31739,-0.0264235,0.267961,0.969583
385,1335,3.31721,-0.0272456,0.267862,0.969219
393,1327,3.31794,-0.024356,0.266814,0.96835
401,1319,3.31838,-0.0251366,0.266828,0.968062
409,1311,3.31802,-0.0258339,0.266821,0.967738
417,1303,3.31705,-0.0266507,0.267258,0.967113
425,1295,3.31689,-0.0273468,0.267271,0.966839
433,1287,3.31889,-0.0244677,0.265778,0.966233
441,1279,3.31893,-0.0252461,0.265776,0.965886
449,1271,3.31859,-0.0258083,0.265773,0.965635
457,1263,3.31835,-0.0267032,0.265781,0.96529
465,1255,3.31813,-0.0273844,0.26578,0.964987
473,1247,3.31899,-0.0243895,0.264723,0.964139
481,1239,3.31906,-0.0253254,0.264725,0.963728
489,1231,3.31947,-0.0260517,0.264734,0.96346
497,1223,3.31843,-0.0275116,0.265181,0.962579
505,1215,3.32041,-0.024604,0.263671,0.961922
513,1207,3.31971,-0.0254331,0.263685,0.961607
521,1199,3.31868,-0.0262664,0.264613,0.960997
529,1191,3.31903,-0.0270022,0.264109,0.960609
537,1183,3.31833,-0.0276063,0.264106,0.96035
545,1175,3.32047,-0.024678,0.262612,0.959738
553,1167,3.32018,-0.0254856,0.26261,0.959379
561,1159,3.31904,-0.0262739,0.263048,0.958785
569,1151,3.31813,-0.0270426,0.263493,0.958193
577,1143,3.32079,-0.0240706,0.261557,0.957882
585,1135,3.32002,-0.0255897,0.261994,0.956947
593,1127,3.31971,-0.0263897,0.261991,0.956601
601,1119,3.31922,-0.0270947,0.262,0.956335
609,1111,3.31888,-0.0278227,0.261996,0.95601
617,1103,3.32044,-0.0249253,0.26093,0.955088
625,1095,3.32051,-0.0256301,0.260481,0.955011
633,1087,3.31992,-0.0272304,0.260939,0.954135
641,1079,3.31891,-0.0280368,0.261372,0.953495
649,1071,3.32084,-0.0249625,0.259864,0.952919
657,1063,3.32107,-0.0265283,0.260357,0.952276
665,1055,3.3199,-0.0274437,0.260324,0.951667
673,1047,3.32107,-0.0251866,0.259254,0.950459
681,1039,3.3214,-0.0258211,0.25881,0.950438
689,1031,3.32117,-0.0266582,0.258815,0.95009
697,1023,3.3196,-0.0281954,0.259258,0.949174
705,1015,3.321,-0.0252796,0.258193,0.948278
713,1007,3.32116,-0.026749,0.258187,0.947634
721,999,3.32035,-0.0284288,0.258634,0.946677
729,991,3.32099,-0.0253598,0.258045,0.94582
737,983,3.32113,-0.0261984,0.257554,0.945449
745,975,3.32053,-0.0276689,0.257552,0.944802
753,967,3.32139,-0.0254952,0.25648,0.94357
761,959,3.32172,-0.0261969,0.256475,0.943258
769,951,3.32127,-0.0277412,0.256728,0.942584
777,943,3.32184,-0.024736,0.255402,0.941711
785,935,3.32211,-0.0263962,0.25541,0.941025
793,927,3.32059,-0.0278994,0.255848,0.940114
801,919,3.32186,-0.0257147,0.254775,0.938881
809,911,3.32162,-0.0272843,0.25523,0.937995
817,903,3.32081,-0.0289596,0.255227,0.93727
825,895,3.32164,-0.0267704,0.254596,0.935781
833,887,3.32159,-0.0274357,0.254143,0.935737
841,879,3.31916,-0.029057,0.255026,0.934494
849,871,3.32159,-0.0267215,0.253502,0.933579
857,863,3.32095,-0.0282534,0.253497,0.932911
865,855,3.32285,-0.0259465,0.252412,0.931503
873,847,3.32179,-0.0275767,0.252414,0.931013
881,839,3.32043,-0.0293882,0.253324,0.929786
889,831,3.32154,-0.0270568,0.251785,0.928826
897,823,3.32128,-0.0285742,0.252224,0.927901
905,815,3.32175,-0.0263597,0.251141,0.926904
913,807,3.32226,-0.0278968,0.251139,0.926017
921,799,3.32088,-0.0286652,0.251128,0.925645
929,791,3.32207,-0.0265705,0.250044,0.924349
937,783,3.32148,-0.0288857,0.250991,0.923161
945,775,3.32231,-0.0265907,0.249402,0.921891
953,767,3.32201,-0.0281319,0.249394,0.921217
961,759,3.32337,-0.0239411,0.247863,0.919866
969,751,3.3223,-0.0343542,0.248307,0.918605
977,743,3.32135,-0.0339708,0.248312,0.917566
985,735,3.32182,-0.0316426,0.247212,0.916334
993,727,3.32187,-0.029914,0.246761,0.914884
1001,719,3.32292,-0.0255919,0.245215,0.914759
1009,711,3.32182,-0.0292644,0.2459,0.9115
1017,703,3.32347,-0.0296955,0.243661,0.910765
1025,695,3.32214,-0.0312229,0.243654,0.910118
1033,687,3.32366,-0.0276274,0.242103,0.908435
1041,679,3.32238,-0.0353855,0.2421,0.907354
1049,671,3.32239,-0.033898,0.241432,0.905523
1057,663,3.32144,-0.0354055,0.241428,0.90489
1065,655,3.32442,-0.0297945,0.239442,0.903097
1073,647,3.32151,-0.0295267,0.239873,0.901719
1081,639,3.32319,-0.027866,0.238319,0.900441
1089,631,3.32309,-0.0356745,0.237892,0.899657
1097,623,3.32365,-0.0320187,0.236767,0.89773
1105,615,3.32148,-0.0325161,0.237207,0.896075
1113,607,3.32394,-0.0267003,0.234772,0.894524
1121,599,3.32458,-0.0334627,0.234099,0.892712
1129,591,3.32268,-0.0351903,0.234533,0.891765
1137,583,3.32451,-0.0314436,0.232539,0.890362
1145,575,3.32299,-0.0297771,0.232531,0.888585
1153,567,3.32394,-0.0261605,0.23141,0.886638
1161,559,3.32202,-0.0370185,0.231841,0.88536
1169,551,3.32352,-0.0332605,0.230283,0.883715
1177,543,3.32477,-0.0296792,0.228944,0.881999
1185,535,3.32381,-0.0280117,0.228724,0.880241
1193,527,3.32391,-0.0347694,0.227658,0.878698
1201,519,3.32481,-0.0310895,0.226026,0.876974
1209,511,3.3227,-0.0337021,0.226883,0.875443
1217,503,3.32508,-0.0265847,0.224464,0.873197
1225,495,3.32308,-0.0354021,0.224888,0.871552
1233,487,3.3236,-0.0275378,0.224167,0.870089
1241,479,3.32414,-0.0300914,0.222591,0.868005
1249,471,3.32256,-0.0306184,0.222594,0.866597
1257,463,3.32327,-0.0311353,0.221873,0.865173
1265,455,3.32472,-0.033603,0.220167,0.863393
1273,447,3.32334,-0.0328272,0.219864,0.861233
1281,439,3.32386,-0.0291321,0.218715,0.859285
1289,431,3.32466,-0.0263451,0.217572,0.856996
1297,423,3.32279,-0.0374216,0.217984,0.855749
1305,415,3.32254,-0.034661,0.21725,0.853171
1313,407,3.32344,-0.030797,0.215665,0.85149
1321,399,3.32188,-0.0300199,0.215667,0.849375
1329,391,3.32258,-0.0283783,0.214498,0.847804
1337,383,3.32286,-0.0363903,0.213751,0.845627
1345,375,3.3251,-0.0300662,0.211317,0.844142
1353,367,3.32248,-0.0316035,0.212158,0.841852
1361,359,3.32306,-0.0276237,0.210559,0.840184
1369,351,3.32341,-0.0357489,0.209807,0.838032
1377,343,3.32099,-0.035002,0.210508,0.83561
1385,335,3.32148,-0.0321068,0.209046,0.833306
1393,327,3.32234,-0.0370332,0.20744,0.831627
1401,319,3.3232,-0.0339815,0.206253,0.829347
1409,311,3.32135,-0.033078,0.206245,0.827236
1417,303,3.32215,-0.0298912,0.205059,0.825018
1425,295,3.32304,-0.0350978,0.203453,0.82327
1433,287,3.32374,-0.0321552,0.202256,0.820941
1441,279,3.32182,-0.0335596,0.202664,0.818961
1449,271,3.32175,-0.0396696,0.201463,0.816641
1457,263,3.32204,-0.0366185,0.20026,0.814361
1465,255,3.322,-0.0350153,0.199464,0.812502
1473,247,3.32375,-0.029391,0.197426,0.810396
1481,239,3.32138,-0.0399408,0.19783,0.808442
1489,231,3.32206,-0.0368857,0.196608,0.806121
1497,223,3.322425,-0.0337712,0.195393,0.803835
1505,215,3.32201,-0.0308094,0.194574,0.8012
1513,207,3.3206,-0.0414816,0.194566,0.79951
1521,199,3.3214,-0.0384077,0.193339,0.797212
1529,191,3.32101,-0.0378148,0.192527,0.795033
1537,183,3.32269,-0.0297283,0.190473,0.792503
1545,175,3.32274,-0.0359883,0.189222,0.790176
1553,167,3.32077,-0.0412341,0.189622,0.789356
1561,159,3.32066,-0.034237,0.18864,0.785906
1569,151,3.32098,-0.0407075,0.187136,0.783609
1577,143,3.32205,-0.039919,0.185877,0.781702
1585,135,3.32225,-0.0366207,0.184615,0.779414
1593,127,3.32035,-0.0356974,0.18461,0.77729
1601,119,3.32139,-0.0323449,0.182947,0.775304
1609,111,3.32183,-0.0388399,0.181689,0.773014
1617,103,3.32292,-0.0380037,0.180416,0.771127
1625,95,3.32272,-0.0323641,0.179141,0.768375
1633,87,3.32133,-0.0337724,0.179134,0.76671
1641,79,3.32174,-0.0427117,0.177866,0.764898
1649,71,3.32221,-0.0371316,0.176581,0.762116
1657,63,3.32319,-0.0371914,0.175292,0.759941
1665,55,3.32416,-0.031413,0.173608,0.757487
1673,47,3.32486,-0.0404609,0.17231,0.75564
1681,39,3.32595,-0.0345201,0.170622,0.753226
1689,31,3.32292,-0.0372404,0.171005,0.750895
1697,23,3.32433,-0.0438095,0.16931,0.748915
1705,15,3.32414,-0.0431489,0.168385,0.746716
1713,7,3.32558,-0.0355422,0.1663,0.74384
1717,3,3.32347,-0.04033,0.167503,0.74304