Folder: MyBatteryML/hust_correlation_analysis/matrices (part 36)

File: HUST_10-2_cycle_feature_matrix.csv
cycle_number,rul,voltage,current,capacity,charge_capacity
1,1699,3.31987,0.0102124,0.264849,1.0254
9,1691,3.30471,-0.0238848,0.277039,1.01232
17,1683,3.30826,-0.0221943,0.274324,1.01744
25,1675,3.3117,-0.0200239,0.272263,1.01994
33,1667,3.31186,-0.0205952,0.271094,1.02016
41,1659,3.3122,-0.0212954,0.270965,1.02007
49,1651,3.31263,-0.0217522,0.270294,1.02008
57,1643,3.31225,-0.0203632,0.269627,1.01867
65,1635,3.31308,-0.0213139,0.269293,1.01821
73,1627,3.31415,-0.0191485,0.268292,1.01718
81,1619,3.31367,-0.021454,0.269093,1.01582
89,1611,3.31421,-0.0188661,0.267683,1.015
97,1603,3.31385,-0.0201658,0.268078,1.01412
105,1595,3.31307,-0.0216321,0.268478,1.01318
113,1587,3.3141,-0.0196023,0.267471,1.01208
121,1579,3.31371,-0.0203158,0.267871,1.01149
129,1571,3.31292,-0.0216196,0.268271,1.01063
137,1563,3.31347,-0.0197833,0.267663,1.00919
145,1555,3.31355,-0.0203524,0.267663,1.0089
153,1547,3.3119,-0.0218123,0.268468,1.00772
161,1539,3.3139,-0.0191593,0.267057,1.00715
169,1531,3.31273,-0.0205775,0.267862,1.00599
177,1523,3.31205,-0.0213255,0.268267,1.00539
185,1515,3.31178,-0.0225352,0.268672,1.00457
193,1507,3.31333,-0.0199561,0.267252,1.00392
201,1499,3.31208,-0.0206601,0.267658,1.00335
209,1491,3.31214,-0.0219452,0.268061,1.00249
217,1483,3.31075,-0.0227162,0.268462,1.00188
225,1475,3.31157,-0.0201256,0.267454,1.00124
233,1467,3.31219,-0.020793,0.267827,1.00069
241,1459,3.31117,-0.02149,0.268241,0.998791
249,1451,3.31017,-0.0223039,0.268278,0.999506
257,1443,3.30926,-0.0230628,0.268684,0.998877
265,1435,3.31121,-0.020429,0.267667,0.998013
273,1427,3.31071,-0.021035,0.267666,0.997728
281,1419,3.30905,-0.0225152,0.268494,0.996545
289,1411,3.30945,-0.0231137,0.268081,0.996508
297,1403,3.31074,-0.0203886,0.267062,0.995686
305,1395,3.31096,-0.0210297,0.267059,0.995378
313,1387,3.30895,-0.0225417,0.267892,0.994194
321,1379,3.30927,-0.0231799,0.267892,0.9939
329,1371,3.31039,-0.0206092,0.26687,0.992996
337,1363,3.31012,-0.0212454,0.267067,0.99244
345,1355,3.30989,-0.0220171,0.267283,0.992096
353,1347,3.30864,-0.0227273,0.2677,0.991514
361,1339,3.30991,-0.0206309,0.267055,0.990371
369,1331,3.30967,-0.0212201,0.266679,0.990104
377,1323,3.30978,-0.0220605,0.267097,0.98948
385,1315,3.30867,-0.0228203,0.267515,0.988869
393,1307,3.31051,-0.0200836,0.26607,0.988274
401,1299,3.30953,-0.0214305,0.266491,0.98741
409,1291,3.30852,-0.0222353,0.267292,0.986785
417,1283,3.30861,-0.022861,0.266911,0.986493
425,1275,3.30755,-0.0236724,0.267334,0.985884
433,1267,3.30914,-0.0215667,0.266304,0.984724
441,1259,3.3087,-0.0223085,0.266727,0.984138
449,1251,3.30809,-0.0231723,0.267152,0.983505
457,1243,3.30797,-0.0237835,0.267152,0.983234
465,1235,3.30973,-0.0210189,0.265696,0.982619
473,1227,3.30777,-0.0224901,0.266544,0.981439
481,1219,3.30728,-0.0231999,0.266976,0.980886
489,1211,3.30661,-0.0239991,0.266974,0.980513
497,1203,3.3074,-0.0212141,0.265936,0.979647
505,1195,3.3078,-0.0218812,0.266346,0.979344
513,1187,3.30637,-0.022695,0.266743,0.978724
521,1179,3.30682,-0.0241429,0.266362,0.978059
529,1171,3.30808,-0.0213253,0.265326,0.977204
537,1163,3.30764,-0.0219783,0.265327,0.976911
545,1155,3.30681,-0.0227941,0.265754,0.976308
553,1147,3.30667,-0.0242243,0.266188,0.975416
561,1139,3.30747,-0.0215313,0.265152,0.974505
569,1131,3.30721,-0.022789,0.265151,0.973936
577,1123,3.30687,-0.0236117,0.265581,0.973327
585,1115,3.30621,-0.0243677,0.26558,0.972795
593,1107,3.30741,-0.0222193,0.264542,0.971804
601,1099,3.30752,-0.0228414,0.264542,0.97153
609,1091,3.30636,-0.023691,0.264974,0.970902
617,1083,3.30708,-0.0216904,0.264363,0.969395
625,1075,3.30674,-0.0223125,0.264367,0.969125
633,1067,3.30639,-0.0231732,0.265183,0.968493
641,1059,3.30528,-0.024638,0.265234,0.967581
649,1051,3.30601,-0.0218674,0.264194,0.966679
657,1043,3.30594,-0.0233832,0.264631,0.96576
665,1035,3.30552,-0.0240748,0.264628,0.965446
673,1027,3.30687,-0.021971,0.263581,0.964227
681,1019,3.3061,-0.0226031,0.263581,0.964131
689,1011,3.30653,-0.0204876,0.262859,0.962724
697,1003,3.30519,-0.0248306,0.264018,0.962715
705,995,3.30586,-0.0228802,0.263409,0.961181
713,987,3.30462,-0.0234282,0.26341,0.960938
721,979,3.30349,-0.0243651,0.26385,0.960285
729,971,3.30544,-0.022158,0.262798,0.959095
737,963,3.30534,-0.0237458,0.263241,0.958155
745,955,3.30479,-0.024353,0.263242,0.957898
753,947,3.30607,-0.0223025,0.262188,0.95662
761,939,3.30463,-0.0231311,0.262628,0.956013
769,931,3.30416,-0.0244992,0.262633,0.955424
777,923,3.30552,-0.0223214,0.261834,0.954207
785,915,3.30478,-0.0231882,0.262021,0.953587
793,907,3.30437,-0.0246365,0.262018,0.95295
801,899,3.30512,-0.0225651,0.261411,0.951441
809,891,3.30434,-0.0233059,0.261407,0.951125
817,883,3.3029,-0.0246299,0.261851,0.950282
825,875,3.30507,-0.0218857,0.260343,0.949561
833,867,3.30444,-0.0233025,0.260883,0.948705
841,859,3.3039,-0.0248932,0.261243,0.948019
849,851,3.30512,-0.022809,0.260183,0.946506
857,843,3.30388,-0.0244495,0.26063,0.945542
865,835,3.30217,-0.0258981,0.261082,0.944921
873,827,3.30322,-0.0230019,0.260019,0.943748
881,819,3.30362,-0.0243999,0.260018,0.943153
889,811,3.30222,-0.0259999,0.26047,0.942216
897,803,3.30347,-0.0238185,0.259404,0.940976
905,795,3.3021,-0.0254159,0.259859,0.940042
913,787,3.3043,-0.0232055,0.258789,0.938816
921,779,3.30341,-0.0247445,0.259244,0.937896
929,771,3.30156,-0.0263279,0.260102,0.936971
937,763,3.30306,-0.0241,0.258627,0.935718
945,755,3.30232,-0.0258959,0.259083,0.934701
953,747,3.30353,-0.0234757,0.258008,0.933532
961,739,3.30218,-0.0251392,0.25847,0.932591
969,731,3.30061,-0.0267269,0.259332,0.931656
977,723,3.302,-0.0244738,0.257848,0.930396
985,715,3.30131,-0.0260324,0.258707,0.929498
993,707,3.30231,-0.023649,0.257021,0.92855
1001,699,3.30085,-0.0253213,0.257225,0.927577
1009,691,3.30038,-0.0270692,0.25749,0.92662
1017,683,3.30177,-0.024749,0.256609,0.92538
1025,675,3.29992,-0.0271273,0.25707,0.924122
1033,667,3.30119,-0.024943,0.256458,0.922576
1041,659,3.30072,-0.0263968,0.256458,0.92175
1049,651,3.30202,-0.0247879,0.255366,0.920436
1057,643,3.29956,-0.0266833,0.256307,0.919138
1065,635,3.30197,-0.0242377,0.254739,0.918179
1073,627,3.30007,-0.0268288,0.255684,0.916612
1081,619,3.30097,-0.0244366,0.254591,0.915363
1089,611,3.29989,-0.0261148,0.255064,0.914425
1097,603,3.30098,-0.0245217,0.253965,0.91284
1105,595,3.29927,-0.0262934,0.254436,0.911846
1113,587,3.30104,-0.0246677,0.253339,0.910273
1121,579,3.29969,-0.0263085,0.253814,0.909358
1129,571,3.30026,-0.0249623,0.253589,0.907401
1137,563,3.29879,-0.026663,0.253367,0.906455
1145,555,3.30004,-0.0250765,0.252565,0.904843
1153,547,3.29771,-0.0276539,0.253527,0.903292
1161,539,3.29889,-0.0252881,0.252419,0.901996
1169,531,3.29776,-0.0278292,0.252903,0.900723
1177,523,3.2977,-0.02627,0.252277,0.89882
1185,515,3.29664,-0.0290542,0.252765,0.89746
1193,507,3.29785,-0.0265651,0.251649,0.896191
1201,499,3.29577,-0.0290487,0.252136,0.894942
1209,491,3.2976,-0.0275062,0.25102,0.893294
1217,483,3.29808,-0.0259017,0.250389,0.891401
1225,475,3.29651,-0.0284827,0.250878,0.890107
1233,467,3.29772,-0.026821,0.249755,0.888492
1241,459,3.29483,-0.0296478,0.250746,0.886851
1249,451,3.29674,-0.0280647,0.249616,0.885188
1257,443,3.29637,-0.0264767,0.248984,0.883245
1265,435,3.29462,-0.02998,0.249986,0.881358
1273,427,3.29437,-0.0284523,0.249357,0.879371
1281,419,3.29594,-0.0269394,0.248218,0.877619
1289,411,3.29374,-0.029526,0.248723,0.876418
1297,403,3.29512,-0.0288792,0.248088,0.874087
1305,395,3.29534,-0.0270997,0.246943,0.872438
1313,387,3.29274,-0.0309171,0.247964,0.870456
1321,379,3.29354,-0.0293233,0.247328,0.868468
1329,371,3.294,-0.0275419,0.246173,0.866805
1337,363,3.29506,-0.0268234,0.245534,0.864482
1345,355,3.29249,-0.03066,0.24657,0.86249
1353,347,3.29296,-0.0297288,0.245407,0.859203
1361,339,3.29302,-0.0281543,0.244766,0.858459
1369,331,3.29333,-0.0274833,0.244123,0.856079
1377,323,3.29058,-0.0312888,0.245177,0.854128
1385,315,3.29137,-0.0303936,0.244002,0.852098
1393,307,3.2916,-0.0295878,0.243356,0.849739
1401,299,3.29181,-0.0289427,0.242714,0.847329
1409,291,3.29172,-0.0280755,0.242064,0.844978
1417,283,3.28918,-0.0330516,0.243135,0.8426
1425,275,3.28858,-0.0323355,0.242489,0.840203
1433,267,3.28838,-0.0325941,0.241842,0.837424
1441,259,3.28892,-0.0318341,0.241191,0.835012
1449,251,3.28902,-0.0369895,0.239437,0.832351
1457,243,3.28871,-0.0345751,0.238236,0.82968
1465,235,3.28939,-0.0286221,0.236482,0.827399
1473,227,3.2887,-0.034884,0.235269,0.824082
1481,219,3.28866,-0.0338756,0.23405,0.822041
1489,211,3.2887,-0.0392891,0.232829,0.819056
1497,203,3.28981,-0.031363,0.229989,0.816868
1505,195,3.28797,-0.0318804,0.229829,0.813686
1513,187,3.28861,-0.0343984,0.227528,0.811165
1521,179,3.2881,-0.0318961,0.226287,0.808481
1529,171,3.28796,-0.0397671,0.225043,0.805826
1537,163,3.28811,-0.0330977,0.223409,0.802565
1545,155,3.28687,-0.0332433,0.222544,0.799832
1553,147,3.28703,-0.0386618,0.221171,0.797173
1561,139,3.28649,-0.0345865,0.219493,0.793874
1569,131,3.28594,-0.0427618,0.218227,0.79118
1577,123,3.28696,-0.0357849,0.215909,0.788276
1585,115,3.28926,-0.0387117,0.212841,0.785223
1593,107,3.28883,-0.034548,0.211207,0.78192
1601,99,3.28814,-0.0320219,0.210262,0.779433
1609,91,3.28806,-0.0386828,0.208972,0.775919
1617,83,3.28704,-0.0346843,0.207675,0.772552
1625,75,3.28803,-0.0400462,0.205341,0.770279
1633,67,3.28597,-0.0414811,0.205056,0.767084
1641,59,3.28952,-0.0401636,0.201401,0.763199
1649,51,3.28856,-0.0374797,0.200075,0.760527
1657,43,3.28828,-0.0331487,0.199151,0.757213
1665,35,3.28809,-0.0400884,0.196898,0.754203
1673,27,3.28686,-0.0385959,0.196374,0.750857
1681,19,3.28694,-0.0454392,0.194206,0.747906
1689,11,3.28961,-0.0357094,0.191001,0.744143
1697,3,3.29007,-0.0310464,0.189139,0.741218

File: HUST_10-3_cycle_feature_matrix.csv
cycle_number,rul,voltage,current,capacity,charge_capacity
1,1850,3.32771,-0.0116405,0.265082,1.0019
10,1841,3.3113,-0.0155603,0.269955,0.994048
19,1832,3.31349,-0.0140501,0.268033,0.99316
28,1823,3.31302,-0.0162285,0.268458,0.991959
37,1814,3.31465,-0.014167,0.266517,0.991239
46,1805,3.31404,-0.0148339,0.266505,0.990921
55,1796,3.31342,-0.0163041,0.266928,0.989998
64,1787,3.31548,-0.0135297,0.265015,0.989639
73,1778,3.31441,-0.0149483,0.265434,0.988752
82,1769,3.31432,-0.016337,0.265866,0.987885
91,1760,3.31373,-0.0170277,0.265441,0.987813
100,1751,3.31552,-0.0142235,0.263951,0.987255
109,1742,3.31574,-0.0156657,0.264375,0.986365
118,1733,3.31466,-0.0163531,0.264385,0.986098
127,1724,3.31315,-0.0171274,0.264803,0.985475
136,1715,3.31629,-0.0144505,0.263322,0.984834
145,1706,3.31573,-0.0157006,0.263422,0.984291
154,1697,3.31489,-0.0164123,0.263744,0.983709
163,1688,3.31462,-0.0170932,0.263738,0.983402
172,1679,3.3155,-0.0144613,0.262688,0.982486
181,1670,3.31581,-0.0150451,0.262367,0.98223
190,1661,3.31564,-0.015839,0.263079,0.98188
199,1652,3.31477,-0.0164856,0.263117,0.981596
208,1643,3.31472,-0.0172503,0.263114,0.981008
217,1634,3.31587,-0.0143902,0.261609,0.980381
226,1625,3.31679,-0.0150907,0.261611,0.98009
235,1616,3.31579,-0.0158974,0.262036,0.979457
244,1607,3.31503,-0.0165673,0.262034,0.979168
253,1598,3.31549,-0.0173814,0.262033,0.978818
262,1589,3.31723,-0.0144466,0.260536,0.97824
271,1580,3.31642,-0.0143911,0.260942,0.978185
280,1571,3.31608,-0.0151867,0.260922,0.977784
289,1562,3.31553,-0.0152784,0.260924,0.9775
298,1553,3.31554,-0.0159353,0.260924,0.9772
307,1544,3.31462,-0.0167599,0.26136,0.976622
316,1535,3.3162,-0.0145933,0.260291,0.975469
325,1526,3.31609,-0.0146359,0.260283,0.975428
334,1517,3.31545,-0.0160125,0.260287,0.974837
343,1508,3.31559,-0.01675,0.260727,0.974101
352,1499,3.31526,-0.0174828,0.261033,0.973952
361,1490,3.31566,-0.01399,0.259641,0.971927
370,1481,3.31679,-0.0153138,0.259595,0.973054
379,1472,3.31558,-0.0154273,0.259649,0.972744
388,1463,3.31584,-0.0159843,0.259638,0.972473
397,1454,3.31476,-0.0176074,0.260089,0.971581
406,1445,3.31678,-0.0139889,0.258567,0.971233
415,1436,3.31678,-0.0147274,0.258563,0.970898
424,1427,3.31561,-0.0162461,0.259009,0.970025
433,1418,3.31581,-0.0168653,0.259012,0.969766
442,1409,3.31451,-0.0176617,0.259436,0.969146
451,1400,3.316434,-0.014576,0.25793,0.96862
460,1391,3.31591,-0.0156296,0.258358,0.967909
469,1382,3.31581,-0.0163619,0.25835,0.967566
478,1373,3.31569,-0.0170185,0.258363,0.96757
487,1364,3.31423,-0.0177283,0.258792,0.966768
496,1355,3.31693,-0.0147533,0.25728,0.966166
505,1346,3.31626,-0.0155355,0.257278,0.965829
514,1337,3.31489,-0.0170296,0.258144,0.964681
523,1328,3.31467,-0.0179036,0.258135,0.964269
532,1319,3.316,-0.014218,0.256527,0.963938
541,1310,3.31601,-0.0157452,0.257039,0.963028
550,1301,3.31487,-0.0164736,0.257011,0.962713
559,1292,3.31541,-0.0171665,0.257025,0.962376
568,1283,3.31461,-0.0178921,0.257043,0.96212
577,1274,3.316,-0.014986,0.256042,0.961214
586,1265,3.31566,-0.0157336,0.255945,0.960883
595,1256,3.31579,-0.0172454,0.256392,0.960013
604,1247,3.31468,-0.0179681,0.256387,0.959686
613,1238,3.31597,-0.0150435,0.255277,0.958738
622,1229,3.31595,-0.0159006,0.255292,0.958425
631,1220,3.31544,-0.0165706,0.255293,0.958137
640,1211,3.31483,-0.0173745,0.255812,0.957519
649,1202,3.31679,-0.0151494,0.254199,0.95659
658,1193,3.31596,-0.0159807,0.254629,0.955984
667,1184,3.3151,-0.0167545,0.25507,0.955395
676,1175,3.31526,-0.0174415,0.255067,0.955096
685,1166,3.3139,-0.0182444,0.255066,0.95476
694,1157,3.31654,-0.0152459,0.253537,0.954147
703,1148,3.31581,-0.0168251,0.253969,0.953209
712,1139,3.31573,-0.017513,0.253969,0.95292
721,1130,3.31455,-0.0182289,0.253966,0.952852
730,1121,3.31621,-0.0153069,0.252857,0.951665
739,1112,3.31595,-0.0159964,0.252865,0.951382
748,1103,3.31604,-0.016802,0.252809,0.951056
757,1094,3.31447,-0.017564,0.253294,0.950458
766,1085,3.31412,-0.0183952,0.253294,0.950104
775,1076,3.31636,-0.0160199,0.252198,0.948956
784,1067,3.31616,-0.0168672,0.252198,0.948609
793,1058,3.31557,-0.0174654,0.252195,0.948343
802,1049,3.31666,-0.0153545,0.25109,0.947083
811,1040,3.31659,-0.0161612,0.251091,0.946747
820,1031,3.31579,-0.0169324,0.25153,0.946164
829,1022,3.31635,-0.0176894,0.251077,0.946301
838,1013,3.31603,-0.0154202,0.250416,0.944406
847,1004,3.3161,-0.0163527,0.250714,0.944213
856,995,3.315,-0.0179725,0.250841,0.943254
865,986,3.31752,-0.0148447,0.249299,0.942657
874,977,3.31641,-0.0163476,0.249743,0.94178
883,968,3.31554,-0.0179403,0.250181,0.940866
892,959,3.31479,-0.0186694,0.25018,0.94054
901,950,3.31619,-0.016473,0.249064,0.939283
910,941,3.31609,-0.0172538,0.24935,0.938935
919,932,3.31462,-0.0188923,0.249494,0.93798
928,923,3.3165,-0.0166706,0.248392,0.93677
937,914,3.31501,-0.0173521,0.248829,0.936213
946,905,3.31634,-0.0150656,0.247268,0.935226
955,896,3.31634,-0.0173549,0.248093,0.934038
964,887,3.31502,-0.0182354,0.248159,0.933429
973,878,3.31701,-0.0158121,0.246589,0.932485
982,869,3.31638,-0.0174531,0.247034,0.931557
991,860,3.31471,-0.0190517,0.247472,0.930616
1000,851,3.31638,-0.016782,0.246347,0.92936
1009,842,3.31583,-0.0183183,0.246315,0.928721
1018,833,3.31572,-0.016087,0.245658,0.927157
1027,824,3.3155,-0.0176071,0.245658,0.926534
1036,815,3.31449,-0.0193352,0.24609,0.92552
1045,806,3.31523,-0.0162196,0.244961,0.924585
1054,797,3.31444,-0.0185196,0.245414,0.923417
1063,788,3.31563,-0.0163892,0.244278,0.922061
1072,779,3.31483,-0.0178929,0.244719,0.921169
1081,770,3.31328,-0.0195448,0.245182,0.920272
1090,761,3.31419,-0.0172998,0.244041,0.918957
1099,752,3.31405,-0.0189221,0.244033,0.918276
1108,743,3.31566,-0.0166009,0.242892,0.917001
1117,734,3.31346,-0.0189423,0.243798,0.915525
1126,725,3.31502,-0.0166257,0.2422,0.914501
1135,716,3.31395,-0.0181796,0.24265,0.913608
1144,707,3.31481,-0.0167353,0.241951,0.911675
1153,698,3.31384,-0.0184309,0.242412,0.910744
1162,689,3.31594,-0.0166646,0.240804,0.909479
1171,680,3.31354,-0.018464,0.241713,0.908223
1180,671,3.31473,-0.0169235,0.240647,0.906602
1189,662,3.31317,-0.0186709,0.241018,0.905638
1198,653,3.31435,-0.0168247,0.239848,0.904103
1207,644,3.31392,-0.018595,0.239857,0.903435
1216,635,3.31433,-0.0169918,0.239153,0.901544
1225,626,3.31315,-0.0188804,0.239605,0.900497
1234,617,3.31455,-0.0172157,0.238439,0.898887
1243,608,3.31341,-0.0197708,0.238898,0.897609
1252,599,3.31403,-0.0182826,0.23819,0.895657
1261,590,3.31222,-0.0207244,0.238651,0.894411
1270,581,3.31271,-0.019314,0.237945,0.892439
1279,572,3.31399,-0.0175986,0.236772,0.890848
1288,563,3.31171,-0.0204042,0.237703,0.889184
1297,554,3.3122,-0.018516,0.236517,0.88762
1306,545,3.31101,-0.0212153,0.236993,0.886574
1315,536,3.31183,-0.0193466,0.235804,0.884998
1324,527,3.31227,-0.017818,0.235085,0.88278
1333,518,3.3111,-0.0205195,0.235557,0.881457
1342,509,3.31159,-0.0197086,0.234838,0.879188
1351,500,3.31219,-0.0181189,0.234118,0.877217
1360,491,3.30981,-0.0208423,0.234862,0.875884
1369,482,3.31019,-0.0200693,0.233868,0.873589
1378,473,3.31139,-0.0182555,0.232663,0.871964
1387,464,3.31219,-0.0174326,0.231932,0.869665
1396,455,3.30941,-0.0213539,0.232895,0.867616
1405,446,3.30919,-0.0195943,0.232166,0.865648
1414,437,3.31109,-0.0186024,0.230948,0.863706
1423,428,3.31144,-0.0178842,0.23061,0.861336
1432,419,3.30744,-0.0218574,0.23168,0.858989
1441,410,3.30903,-0.0209976,0.23045,0.856954
1450,401,3.30872,-0.0201283,0.230113,0.85463
1459,392,3.30926,-0.019214,0.22897,0.852301
1468,383,3.30624,-0.0207985,0.229462,0.850278
1477,374,3.30705,-0.0271322,0.228214,0.847965
1486,365,3.30775,-0.0213304,0.225968,0.845946
1495,356,3.30757,-0.0180739,0.225214,0.843311
1504,347,3.30824,-0.0252498,0.223458,0.840777
1513,338,3.30917,-0.0196656,0.222102,0.838607
1522,329,3.30566,-0.0235409,0.222693,0.836664
1531,320,3.30689,-0.0275948,0.220938,0.834355
1540,311,3.30559,-0.0253905,0.220149,0.831286
1549,302,3.30684,-0.0293098,0.217893,0.829315
1558,293,3.30767,-0.0233882,0.216121,0.826997
1567,284,3.30833,-0.0185031,0.214365,0.824365
1576,275,3.30802,-0.0275764,0.213957,0.822031
1585,266,3.30799,-0.0242604,0.212264,0.81965
1594,257,3.30555,-0.0241931,0.212252,0.817351
1603,248,3.30666,-0.0305806,0.210481,0.815447
1612,239,3.30593,-0.0284562,0.210058,0.81238
1621,230,3.30805,-0.0197931,0.20692,0.810394
1630,221,3.30675,-0.0301348,0.206567,0.807411
1639,212,3.30806,-0.0239499,0.204304,0.805454
1648,203,3.30745,-0.0217733,0.203463,0.802389
1657,194,3.30906,-0.0256588,0.201401,0.800473
1666,185,3.30836,-0.0258345,0.200648,0.797779
1675,176,3.3091,-0.0207004,0.198564,0.79368
1684,167,3.30929,-0.0277641,0.197189,0.79274
1693,158,3.31004,-0.0224166,0.195379,0.79015
1702,149,3.30636,-0.0251211,0.195838,0.78781
1711,140,3.30686,-0.0305851,0.194022,0.785119
1720,131,3.30828,-0.0268704,0.192516,0.783155
1729,122,3.30809,-0.0320698,0.190396,0.780569
1738,113,3.30825,-0.0297034,0.18903,0.777842
1747,104,3.30956,-0.0242521,0.186754,0.775553
1756,95,3.30949,-0.0325002,0.185214,0.773079
1765,86,3.3096,-0.0284431,0.184387,0.76954
1774,77,3.31021,-0.0245033,0.182538,0.767559
1783,68,3.30879,-0.0340521,0.181205,0.764159
1792,59,3.30955,-0.0312877,0.179363,0.761851
1801,50,3.31313,-0.0205816,0.175685,0.75884
1810,41,3.31293,-0.0301431,0.174275,0.75581
1819,32,3.31356,-0.0247258,0.172417,0.753137
1828,23,3.3147,-0.0203524,0.170563,0.750144
1837,14,3.31421,-0.0296892,0.16913,0.747207
1846,5,3.31433,-0.0255459,0.167272,0.744162
1848,3,3.31657,-0.0221512,0.166094,0.742862