Folder: MyBatteryML/hust_correlation_analysis/matrices (part 4)

File: HUST_1-7_cycle_feature_matrix.csv
cycle_number,rul,voltage,current,capacity,charge_capacity
1,1680,3.32001,-0.00922512,0.31315,1.0204
9,1672,3.30746,-0.0129001,0.319132,1.01281
17,1664,3.30897,-0.0117217,0.317853,1.01153
25,1656,3.30879,-0.0128807,0.317387,1.0114
33,1648,3.3103,-0.0112614,0.316096,1.01003
41,1640,3.31023,-0.0126003,0.316086,1.00931
49,1632,3.30981,-0.0133718,0.316764,1.00889
57,1624,3.31128,-0.0113501,0.314803,1.00803
65,1616,3.31108,-0.0120428,0.314799,1.00767
73,1608,3.31083,-0.0127565,0.314796,1.00729
81,1600,3.31007,-0.0139441,0.314806,1.0067
89,1592,3.312,-0.0113282,0.313523,1.00613
97,1584,3.31206,-0.0120977,0.313526,1.00572
105,1576,3.31112,-0.0132471,0.313993,1.00494
113,1568,3.31063,-0.0139631,0.313987,1.00456
121,1560,3.31198,-0.0115461,0.31317,1.00368
129,1552,3.31193,-0.0120523,0.31317,1.00343
137,1544,3.31215,-0.0126366,0.312714,1.00333
145,1536,3.31149,-0.0133241,0.313159,1.00274
153,1528,3.31046,-0.0139829,0.313626,1.00221
161,1520,3.31219,-0.0114038,0.312355,1.00163
169,1512,3.31286,-0.0119712,0.311894,1.00154
177,1504,3.31223,-0.0126032,0.313039,1.001
185,1496,3.31159,-0.0132154,0.312823,1.00027
193,1488,3.31125,-0.0139546,0.312812,1.00009
201,1480,3.31061,-0.0139867,0.312809,1.00006
209,1472,3.31249,-0.011548,0.311977,0.999141
217,1464,3.31267,-0.0120911,0.311534,0.999124
225,1456,3.31258,-0.0127164,0.31222,0.998794
233,1448,3.31218,-0.0133768,0.312223,0.998263
241,1440,3.31204,-0.0133339,0.311531,0.998458
249,1432,3.31199,-0.0135018,0.311509,0.998313
257,1424,3.31124,-0.0143987,0.312409,0.997369
265,1416,3.31293,-0.0116959,0.310688,0.9971
273,1408,3.3129,-0.0123536,0.310686,0.996746
281,1400,3.31257,-0.0130066,0.310697,0.996437
289,1392,3.31261,-0.013541,0.310696,0.996163
297,1384,3.31221,-0.0135953,0.31069,0.99613
305,1376,3.31243,-0.0140945,0.310234,0.996077
313,1368,3.31367,-0.0115699,0.309424,0.99527
321,1360,3.31373,-0.0122645,0.309416,0.994874
329,1352,3.31341,-0.0129124,0.309418,0.994547
337,1344,3.31321,-0.0134996,0.309424,0.994251
345,1336,3.31254,-0.0142467,0.30988,0.993654
353,1328,3.31474,-0.0110045,0.308141,0.993586
361,1320,3.31407,-0.0121498,0.308612,0.992828
369,1312,3.314,-0.0128715,0.308603,0.992412
377,1304,3.31367,-0.0133184,0.308595,0.992163
385,1296,3.3129,-0.0141121,0.30907,0.9916
393,1288,3.31451,-0.0114765,0.307791,0.991018
401,1280,3.31422,-0.0115473,0.307784,0.99096
409,1272,3.31372,-0.0127673,0.308264,0.990418
417,1264,3.31321,-0.0133686,0.30826,0.989866
425,1256,3.31339,-0.0134868,0.30794,0.98995
433,1248,3.31476,-0.0113956,0.306985,0.98895
441,1240,3.31476,-0.0120533,0.306987,0.988597
449,1232,3.31469,-0.0120473,0.306989,0.988613
457,1224,3.31388,-0.0128022,0.307598,0.988008
465,1216,3.31393,-0.0139373,0.307444,0.987404
473,1208,3.31377,-0.0141322,0.307648,0.987453
481,1200,3.31514,-0.0116466,0.306142,0.986575
489,1192,3.31477,-0.0122304,0.306143,0.98627
497,1184,3.31445,-0.0130527,0.306137,0.985821
505,1176,3.31435,-0.0136488,0.306137,0.985506
513,1168,3.31363,-0.0142729,0.306602,0.985019
521,1160,3.31532,-0.0116906,0.30532,0.984375
529,1152,3.3152,-0.0123356,0.30532,0.984037
537,1144,3.31484,-0.0128498,0.305336,0.98383
545,1136,3.3143,-0.0135071,0.305325,0.983452
553,1128,3.31446,-0.0143113,0.305538,0.982988
561,1120,3.3162,-0.01167,0.304044,0.982426
569,1112,3.31532,-0.0121469,0.305191,0.982013
577,1104,3.31546,-0.0128575,0.304034,0.98177
585,1096,3.31497,-0.0137357,0.304506,0.981131
593,1088,3.3165,-0.0115268,0.303693,0.980161
601,1080,3.31546,-0.0121791,0.304142,0.979596
609,1072,3.31549,-0.0128553,0.303689,0.979463
617,1064,3.31571,-0.0134008,0.303689,0.979176
625,1056,3.31485,-0.0140448,0.303691,0.978832
633,1048,3.31587,-0.0116666,0.303088,0.977899
641,1040,3.31603,-0.0128886,0.302868,0.97724
649,1032,3.31576,-0.0135598,0.302865,0.976886
657,1024,3.31465,-0.0143395,0.303319,0.97627
665,1016,3.3166,-0.0116272,0.302038,0.975706
673,1008,3.31687,-0.0122792,0.301577,0.975545
681,1000,3.31583,-0.0135975,0.302035,0.974652
689,992,3.31497,-0.0143533,0.302483,0.974048
697,984,3.31701,-0.0117507,0.30122,0.97346
705,976,3.31597,-0.0130161,0.30167,0.972572
713,968,3.31613,-0.0136362,0.301206,0.972423
721,960,3.31691,-0.0117158,0.300859,0.971074
729,952,3.31644,-0.0122901,0.300853,0.970772
737,944,3.31632,-0.0136486,0.300851,0.97004
745,936,3.31595,-0.0144472,0.300842,0.969607
753,928,3.31692,-0.0124126,0.300023,0.968486
761,920,3.31654,-0.0130802,0.300021,0.968124
769,912,3.31569,-0.0138535,0.300478,0.965992
777,904,3.31731,-0.0118083,0.299195,0.966574
785,896,3.31723,-0.0130622,0.298577,0.965928
793,888,3.31578,-0.0145855,0.300121,0.964727
801,880,3.31774,-0.011817,0.298371,0.964351
809,872,3.31706,-0.0131855,0.298834,0.963452
817,864,3.31624,-0.013994,0.298822,0.962979
825,856,3.31795,-0.0124581,0.298014,0.961619
833,848,3.3169,-0.0131143,0.298471,0.961072
841,840,3.31622,-0.0140823,0.29915,0.960557
849,832,3.31786,-0.0119834,0.297185,0.958146
857,824,3.3164,-0.0139272,0.298118,0.958251
865,816,3.31825,-0.0112207,0.296944,0.957621
873,808,3.31714,-0.0126122,0.297282,0.956679
881,800,3.31678,-0.0138538,0.297285,0.956038
889,792,3.31773,-0.0118565,0.296468,0.954854
897,784,3.31686,-0.0133484,0.296926,0.953868
905,776,3.31643,-0.0147454,0.296921,0.953128
913,768,3.31739,-0.012695,0.296096,0.951958
921,760,3.31639,-0.0142496,0.296558,0.950934
929,752,3.31781,-0.0120862,0.295263,0.950013
937,744,3.31723,-0.0135506,0.29574,0.94907
945,736,3.31607,-0.0132055,0.295731,0.947988
953,728,3.31746,-0.0180639,0.294438,0.947069
961,720,3.3159,-0.0195567,0.295377,0.945924
969,712,3.3179,-0.0144868,0.293141,0.944366
977,704,3.31661,-0.0160355,0.293602,0.943366
985,696,3.31852,-0.0103527,0.291363,0.940725
993,688,3.317,-0.0118541,0.292314,0.941002
1001,680,3.31823,-0.0157373,0.291012,0.939306
1009,672,3.31781,-0.0152911,0.290544,0.938468
1017,664,3.31887,-0.0115023,0.289251,0.937126
1025,656,3.31784,-0.0118155,0.289253,0.935699
1033,648,3.31792,-0.0175494,0.288889,0.933986
1041,640,3.31699,-0.0171678,0.288891,0.932936
1049,632,3.31834,-0.0139676,0.287605,0.931295
1057,624,3.31733,-0.0135959,0.287593,0.930195
1065,616,3.31825,-0.0105537,0.286297,0.928441
1073,608,3.31733,-0.0177746,0.286306,0.927165
1081,600,3.31851,-0.0146392,0.285008,0.925454
1089,592,3.31775,-0.0143235,0.284538,0.924516
1097,584,3.31827,-0.0113231,0.28371,0.922569
1105,576,3.31629,-0.0206259,0.284627,0.92109
1113,568,3.31753,-0.0156326,0.282872,0.919264
1121,560,3.31863,-0.0124836,0.281568,0.917508
1129,552,3.31765,-0.0198662,0.281585,0.916199
1137,544,3.3182,-0.0167374,0.280745,0.914279
1145,536,3.3168,-0.017109,0.280744,0.91284
1153,528,3.31782,-0.0155721,0.279907,0.911365
1161,520,3.31859,-0.0123752,0.278618,0.909683
1169,512,3.31618,-0.0208355,0.279529,0.907376
1177,504,3.31735,-0.0157709,0.277779,0.90559
1185,496,3.31824,-0.0124818,0.276484,0.903931
1193,488,3.31634,-0.0208033,0.276939,0.90196
1201,480,3.31724,-0.0175756,0.275644,0.900257
1209,472,3.31795,-0.0150749,0.274809,0.898017
1217,464,3.31827,-0.0100045,0.273518,0.895959
1225,456,3.31619,-0.0203263,0.274428,0.894126
1233,448,3.31721,-0.0170236,0.273132,0.892442
1241,440,3.3174,-0.0145,0.272301,0.890225
1249,432,3.31573,-0.0137244,0.272297,0.888066
1257,424,3.31616,-0.0186,0.271456,0.885811
1265,416,3.31696,-0.0152804,0.270161,0.884133
1273,408,3.31708,-0.0126811,0.269324,0.881924
1281,400,3.31713,-0.0175618,0.268481,0.879679
1289,392,3.31564,-0.0168717,0.268473,0.877464
1297,384,3.31551,-0.0162481,0.268084,0.875603
1305,376,3.31618,-0.0117219,0.266787,0.872952
1313,368,3.31687,-0.0166716,0.265485,0.870886
1321,360,3.31712,-0.012296,0.264195,0.868436
1329,352,3.31488,-0.0140795,0.265229,0.86595
1337,344,3.31538,-0.018914,0.263801,0.863969
1345,336,3.3152,-0.0146556,0.263614,0.861215
1353,328,3.31578,-0.0196324,0.261645,0.859149
1361,320,3.31553,-0.0177722,0.261266,0.856401
1369,312,3.31595,-0.0131972,0.25996,0.85397
1377,304,3.31578,-0.0184945,0.259104,0.85158
1385,296,3.3136,-0.0202832,0.259552,0.849297
1393,288,3.31395,-0.0175404,0.258719,0.847154
1401,280,3.3144,-0.0137373,0.257414,0.844345
1409,272,3.31384,-0.0208309,0.257023,0.842272
1417,264,3.31421,-0.0168907,0.256173,0.838068
1425,256,3.31454,-0.0129246,0.254871,0.836606
1433,248,3.31431,-0.0200764,0.254471,0.834534
1441,240,3.31412,-0.0163625,0.253621,0.831475
1449,232,3.31468,-0.0134281,0.252318,0.829532
1457,224,3.31436,-0.0194765,0.251957,0.826741
1465,216,3.31419,-0.0174777,0.25172,0.824149
1473,208,3.31485,-0.0127456,0.249757,0.821704
1481,200,3.31477,-0.0187989,0.248905,0.819136
1489,192,3.31171,-0.0208859,0.249815,0.816575
1497,184,3.31284,-0.0159701,0.248047,0.814386
1505,176,3.31224,-0.0222086,0.247643,0.811552
1513,168,3.31217,-0.0181162,0.246349,0.808855
1521,160,3.31257,-0.0154462,0.245469,0.806478
1529,152,3.31253,-0.0216067,0.244608,0.803891
1537,144,3.31266,-0.0189248,0.243746,0.801587
1545,136,3.31323,-0.0146985,0.242438,0.798882
1553,128,3.31278,-0.0128142,0.242029,0.79602
1561,120,3.31307,-0.0182346,0.240905,0.793975
1569,112,3.31359,-0.0140655,0.239394,0.791211
1577,104,3.31387,-0.0111701,0.23854,0.789002
1585,96,3.31292,-0.0197055,0.238584,0.786354
1593,88,3.31075,-0.0196128,0.238574,0.783846
1601,80,3.3109,-0.0146371,0.237258,0.781404
1609,72,3.31062,-0.0231769,0.23685,0.778997
1617,64,3.31089,-0.0204278,0.235982,0.776688
1625,56,3.31169,-0.014005,0.234203,0.773731
1633,48,3.31179,-0.0216225,0.233335,0.771928
1641,40,3.312,-0.0166013,0.232016,0.769456
1649,32,3.31199,-0.0124831,0.231151,0.766427
1657,24,3.31217,-0.0203034,0.23028,0.764576
1665,16,3.31017,-0.0201764,0.230275,0.762083
1673,8,3.31063,-0.0150457,0.229593,0.759641
1678,3,3.31093,-0.0134054,0.228538,0.75793

File: HUST_1-8_cycle_feature_matrix.csv
cycle_number,rul,voltage,current,capacity,charge_capacity
1,2287,3.32053,-0.0130826,0.299073,1.01829
12,2276,3.31003,-0.0143769,0.302601,1.01063
23,2265,3.31188,-0.0137653,0.301256,1.00909
34,2254,3.31151,-0.0151152,0.300789,1.0086
45,2243,3.31093,-0.0163818,0.300776,1.00796
56,2232,3.31257,-0.0142802,0.299428,1.0071
67,2221,3.31268,-0.0157523,0.299425,1.00638
78,2210,3.31166,-0.0164586,0.299423,1.00603
89,2199,3.31344,-0.0144928,0.298084,1.00513
100,2188,3.31371,-0.0151067,0.298282,1.00504
111,2177,3.31308,-0.0163954,0.298087,1.00421
122,2166,3.31455,-0.0138973,0.296741,1.00354
133,2155,3.31443,-0.0144458,0.296742,1.00328
144,2144,3.31428,-0.0151111,0.296736,1.00293
155,2133,3.31391,-0.0158551,0.296736,1.00257
166,2122,3.31561,-0.0131435,0.295404,1.00205
177,2111,3.31453,-0.0157469,0.296321,1.00295
188,2100,3.31589,-0.013908,0.295413,1.00172
199,2089,3.31554,-0.0144642,0.295411,1.00143
210,2078,3.31502,-0.0151528,0.295398,1.00106
221,2067,3.31474,-0.0158714,0.295407,1.00072
232,2056,3.31461,-0.0164264,0.295499,1.00043
243,2045,3.31408,-0.0165219,0.295389,1.00033
254,2034,3.3164,-0.0137274,0.294032,1.00003
265,2023,3.31562,-0.0146288,0.294041,0.999345
276,2012,3.31512,-0.0153227,0.294047,0.99903
287,2001,3.31539,-0.0158306,0.293602,0.998978
298,1990,3.31516,-0.0165834,0.2936,0.997291
309,1979,3.31734,-0.0145233,0.292269,0.997753
320,1968,3.31686,-0.0146074,0.29226,0.997681
331,1957,3.31651,-0.0152249,0.292268,0.997404
342,1946,3.31605,-0.0158961,0.292264,0.997056
353,1935,3.31784,-0.0138732,0.290937,0.996192
364,1924,3.31793,-0.0139475,0.29093,0.996143
375,1913,3.31731,-0.0145946,0.29074,0.995819
386,1902,3.31754,-0.0158681,0.29094,0.995201
397,1891,3.31698,-0.0165279,0.290931,0.994836
408,1880,3.31886,-0.0138834,0.289624,0.994346
419,1869,3.31851,-0.0145443,0.289594,0.993933
430,1858,3.31804,-0.0151838,0.289613,0.99367
441,1847,3.31808,-0.0158478,0.289615,0.993343
452,1836,3.31753,-0.0165215,0.289606,0.992957
463,1825,3.31937,-0.0138367,0.288281,0.992438
474,1814,3.31903,-0.0145889,0.28826,0.991981
485,1803,3.31882,-0.015314,0.288261,0.991627
496,1792,3.31833,-0.0159518,0.288254,0.991281
507,1781,3.31812,-0.0165986,0.288256,0.990952
518,1770,3.31979,-0.0139645,0.286921,0.990361
529,1759,3.31978,-0.0152931,0.286919,0.989683
540,1748,3.31953,-0.0158631,0.286937,0.989456
551,1737,3.31899,-0.0165882,0.286913,0.989008
562,1726,3.32065,-0.0139216,0.2856,0.9885
573,1715,3.32041,-0.0146048,0.286215,0.988083
584,1704,3.31993,-0.0160127,0.286033,0.987217
595,1693,3.31956,-0.0165726,0.286027,0.986917
606,1682,3.32121,-0.0140064,0.284693,0.986281
617,1671,3.32073,-0.0146161,0.284697,0.98599
628,1660,3.32015,-0.0160029,0.285327,0.98507
639,1649,3.31957,-0.0166767,0.285126,0.984732
650,1638,3.3221,-0.0139683,0.283354,0.984357
661,1627,3.32122,-0.0153596,0.283787,0.983434
672,1616,3.32044,-0.0160875,0.284217,0.981568
683,1605,3.32058,-0.0167222,0.283791,0.982753
694,1594,3.3219,-0.0148136,0.282881,0.981552
705,1583,3.3215,-0.015379,0.282878,0.981255
716,1572,3.32155,-0.0160835,0.282881,0.980899
727,1561,3.32328,-0.014023,0.281552,0.980031
738,1550,3.32219,-0.014857,0.282179,0.979363
749,1539,3.32232,-0.0154289,0.281535,0.979262
760,1528,3.32154,-0.0168486,0.28197,0.978328
771,1517,3.32318,-0.0141787,0.280633,0.977725
782,1506,3.32275,-0.0148059,0.280635,0.977427
793,1495,3.3223,-0.0161859,0.281061,0.976484
804,1484,3.32358,-0.0135951,0.27972,0.975843
815,1473,3.32273,-0.0149076,0.280144,0.974924
826,1462,3.3225,-0.0156199,0.280159,0.974623
837,1451,3.32194,-0.0169287,0.280154,0.975305
848,1440,3.32389,-0.0143674,0.27889,0.973252
859,1429,3.32299,-0.0156546,0.279246,0.972667
870,1418,3.32278,-0.0168769,0.279235,0.971744
881,1407,3.32431,-0.0143512,0.278335,0.970883
892,1396,3.32322,-0.0156796,0.27876,0.969988
903,1385,3.3225,-0.0164098,0.278757,0.969601
914,1374,3.32407,-0.0143304,0.27742,0.968685
925,1363,3.32316,-0.015812,0.277843,0.967711
936,1352,3.32319,-0.0164575,0.27785,0.967404
947,1341,3.32487,-0.0144087,0.276506,0.966447
958,1330,3.32359,-0.0158633,0.27737,0.96529
969,1319,3.32333,-0.0164414,0.27693,0.96518
980,1308,3.32494,-0.0144279,0.275583,0.964209
991,1297,3.32452,-0.0150543,0.276021,0.963696
1002,1286,3.32335,-0.016569,0.276638,0.962698
1013,1275,3.32399,-0.0146169,0.276045,0.961267
1024,1264,3.32351,-0.0159505,0.275964,0.960618
1035,1253,3.32298,-0.017363,0.275966,0.959652
1046,1242,3.32475,-0.015288,0.275059,0.958755
1057,1231,3.32363,-0.0167803,0.275486,0.957778
1068,1220,3.32494,-0.0146544,0.274578,0.956671
1079,1209,3.32358,-0.0154949,0.275003,0.955991
1090,1198,3.32339,-0.0167615,0.274571,0.955577
1101,1187,3.32464,-0.0147793,0.273653,0.954357
1112,1176,3.32384,-0.016143,0.274068,0.953387
1123,1165,3.32508,-0.0140937,0.273168,0.95227
1134,1154,3.32409,-0.0137788,0.273158,0.951147
1145,1143,3.32241,-0.0230555,0.274115,0.949645
1156,1132,3.32427,-0.0138304,0.272676,0.948696
1167,1121,3.32339,-0.020641,0.272676,0.947846
1178,1110,3.32496,-0.0165901,0.270878,0.946559
1189,1099,3.32365,-0.0163793,0.271316,0.945219
1200,1088,3.32471,-0.0149945,0.270392,0.943646
1211,1077,3.32456,-0.0144983,0.270146,0.942896
1222,1066,3.32301,-0.0231042,0.270391,0.941951
1233,1055,3.32427,-0.0192393,0.26904,0.940641
1244,1044,3.32373,-0.0195702,0.269036,0.939224
1255,1033,3.32439,-0.015665,0.26811,0.937693
1266,1022,3.32387,-0.0171682,0.26798,0.936959
1277,1011,3.32547,-0.0131584,0.266321,0.93588
1288,1000,3.32363,-0.0225126,0.267177,0.934372
1299,989,3.32508,-0.0186747,0.266013,0.933
1310,978,3.32458,-0.0182531,0.265456,0.932168
1321,967,3.3252,-0.0152233,0.264895,0.93001
1332,956,3.32453,-0.0219683,0.264456,0.92918
1343,945,3.32299,-0.0234199,0.264889,0.928278
1354,934,3.32419,-0.0184481,0.263523,0.926198
1365,923,3.32345,-0.0198191,0.263503,0.925445
1376,912,3.32435,-0.0166857,0.262593,0.923577
1387,901,3.3231,-0.0163373,0.26259,0.922505
1398,890,3.32449,-0.0202915,0.26123,0.920866
1409,879,3.32314,-0.023614,0.262724,0.920114
1420,868,3.32395,-0.0204518,0.261356,0.918182
1431,857,3.32535,-0.0182347,0.2598,0.917254
1442,846,3.32383,-0.0186448,0.26023,0.915603
1453,835,3.32531,-0.0134746,0.258432,0.91379
1464,824,3.3233,-0.0231065,0.259305,0.912317
1475,813,3.32458,-0.0191656,0.257929,0.910933
1486,802,3.32367,-0.0201987,0.257936,0.909215
1497,791,3.32492,-0.0142505,0.256125,0.907707
1508,780,3.32299,-0.0166388,0.25698,0.906141
1519,769,3.32383,-0.0225296,0.256047,0.904684
1530,758,3.32417,-0.0193084,0.255104,0.902738
1541,747,3.32285,-0.0215064,0.255533,0.901494
1552,736,3.32409,-0.0163996,0.254168,0.899182
1563,725,3.32432,-0.0131471,0.253394,0.89746
1574,714,3.32278,-0.0235305,0.253653,0.895925
1585,703,3.32403,-0.0182485,0.252019,0.894097
1596,692,3.32194,-0.0206097,0.252705,0.892575
1607,681,3.32311,-0.0173372,0.251335,0.890861
1618,670,3.32345,-0.0139834,0.250387,0.888953
1629,659,3.3217,-0.0226791,0.250815,0.886965
1640,648,3.32257,-0.0192512,0.248958,0.885321
1651,637,3.32349,-0.0146957,0.248061,0.882924
1662,626,3.3219,-0.0170195,0.248491,0.881654
1673,615,3.32156,-0.024118,0.248404,0.8793
1684,604,3.32264,-0.0205792,0.247023,0.877675
1695,593,3.32305,-0.0179409,0.246069,0.875402
1706,582,3.32165,-0.016377,0.245633,0.873818
1717,571,3.32147,-0.0215967,0.245116,0.871304
1728,560,3.32166,-0.0209866,0.24459,0.869174
1739,549,3.32281,-0.0154267,0.242769,0.867369
1750,538,3.32117,-0.0166544,0.243195,0.86385
1761,527,3.32107,-0.0238298,0.242675,0.863271
1772,516,3.32091,-0.0212281,0.242147,0.860756
1783,505,3.3214,-0.0184942,0.241187,0.858517
1794,494,3.32024,-0.0175316,0.240757,0.85666
1805,483,3.31965,-0.0249572,0.240655,0.854257
1816,472,3.32053,-0.0220632,0.239257,0.852284
1827,461,3.32026,-0.0194875,0.238729,0.849761
1838,450,3.32068,-0.0147471,0.237328,0.847311
1849,439,3.31798,-0.0259819,0.238192,0.845521
1860,428,3.31861,-0.0212553,0.236785,0.843058
1871,417,3.31909,-0.0185322,0.235818,0.840788
1882,406,3.31933,-0.0157104,0.234847,0.838538
1893,395,3.31872,-0.024029,0.234744,0.835854
1904,384,3.31913,-0.0191743,0.233332,0.833416
1915,373,3.31954,-0.0163356,0.232542,0.83118
1926,362,3.31727,-0.0175595,0.232627,0.829197
1937,351,3.31681,-0.0239195,0.232249,0.826348
1948,340,3.31716,-0.0211276,0.23127,0.824077
1959,329,3.31767,-0.019032,0.230289,0.821501
1970,318,3.31806,-0.0161931,0.229307,0.819227
1981,307,3.31821,-0.023854,0.228772,0.817165
1992,296,3.3185,-0.0188077,0.227335,0.813433
2003,285,3.31577,-0.0210328,0.22835,0.812116
2014,274,3.31555,-0.0266144,0.22722,0.809899
2025,263,3.31533,-0.0246544,0.226673,0.806993
2036,252,3.31566,-0.0218212,0.225679,0.804729
2047,241,3.31609,-0.0187755,0.224687,0.802505
2058,230,3.31707,-0.0157567,0.223249,0.800479
2069,219,3.31639,-0.022372,0.22269,0.797642
2080,208,3.31635,-0.0195555,0.222142,0.795112
2091,197,3.31459,-0.0207985,0.222129,0.793364
2102,186,3.31441,-0.0187265,0.222187,0.790497
2113,175,3.3145,-0.0268229,0.22102,0.788417
2124,164,3.31469,-0.023817,0.22001,0.786123
2135,153,3.31514,-0.0216206,0.218999,0.783517
2146,142,3.31595,-0.0162623,0.217555,0.781144
2157,131,3.31227,-0.029097,0.218882,0.779006
2168,120,3.31325,-0.028138,0.217869,0.777181
2179,109,3.3137,-0.0205373,0.215957,0.774557
2190,98,3.31337,-0.0199116,0.215837,0.77215
2201,87,3.31366,-0.026797,0.214818,0.769578
2212,76,3.3138,-0.0236378,0.21379,0.767286
2223,65,3.31173,-0.0250609,0.214241,0.765319
2234,54,3.31205,-0.021955,0.212705,0.763014
2245,43,3.31279,-0.0187934,0.212187,0.760736
2256,32,3.31266,-0.0273384,0.211613,0.758624
2267,21,3.31317,-0.0241388,0.210582,0.756349
2278,10,3.31336,-0.0210007,0.209546,0.754039
2285,3,3.31223,-0.021241,0.20954,0.752704