Folder: MyBatteryML/hust_correlation_analysis/matrices (part 24)

File: HUST_7-2_cycle_feature_matrix.csv
cycle_number,rul,voltage,current,capacity,charge_capacity
1,2032,3.32386,0.00744738,0.261618,1.01614
11,2022,3.31048,-0.0183141,0.273201,1.00554
21,2012,3.3139,-0.0159784,0.26979,1.00881
31,2002,3.31636,-0.0167079,0.268524,1.00932
41,1992,3.31492,-0.0171657,0.268084,1.00931
51,1982,3.31671,-0.0152199,0.267459,1.00805
61,1972,3.31545,-0.0174388,0.267424,1.00682
71,1962,3.31659,-0.0160971,0.266766,1.00506
81,1952,3.31591,-0.0176318,0.267182,1.00413
91,1942,3.31541,-0.0162391,0.266537,1.00244
101,1932,3.31539,-0.017688,0.266952,1.00149
111,1922,3.3159,-0.0156092,0.26589,1.00037
121,1912,3.3158,-0.017094,0.26631,0.99945
131,1902,3.31408,-0.0183803,0.267146,0.998319
141,1892,3.31542,-0.0163186,0.266082,0.997175
151,1882,3.31417,-0.0177886,0.266925,0.995745
161,1872,3.31461,-0.0150475,0.265839,0.995029
171,1862,3.3145,-0.0165469,0.266277,0.994176
181,1852,3.31346,-0.0179419,0.266702,0.993275
191,1842,3.31445,-0.0151271,0.265617,0.992384
201,1832,3.31423,-0.0165303,0.266046,0.991517
211,1822,3.31227,-0.0180728,0.266905,0.990304
221,1812,3.3115,-0.018814,0.267338,0.989709
231,1802,3.31433,-0.0160971,0.265813,0.989013
241,1792,3.31217,-0.0174614,0.266676,0.987879
251,1782,3.31161,-0.0182169,0.266684,0.987592
261,1772,3.31141,-0.0190172,0.267457,0.986975
271,1762,3.31322,-0.0161051,0.266003,0.985972
281,1752,3.31189,-0.0167165,0.266427,0.985401
291,1742,3.31154,-0.0176143,0.26653,0.985033
301,1732,3.3104,-0.0185642,0.267302,0.984075
311,1722,3.31226,-0.016424,0.265791,0.983214
321,1712,3.31211,-0.0175865,0.265786,0.982753
331,1702,3.3109,-0.0184939,0.26623,0.982089
341,1692,3.31191,-0.0162769,0.26514,0.980944
351,1682,3.31143,-0.0170064,0.26557,0.980318
361,1672,3.31071,-0.0180515,0.26602,0.979628
371,1662,3.3106,-0.0187184,0.266019,0.97937
381,1652,3.31282,-0.0157439,0.264477,0.978766
391,1642,3.31166,-0.0170437,0.265033,0.97799
401,1632,3.31119,-0.017804,0.265368,0.977402
411,1622,3.30991,-0.0188455,0.265813,0.976674
421,1612,3.31087,-0.0166069,0.264718,0.975516
431,1602,3.31092,-0.0173018,0.264718,0.975227
441,1592,3.30989,-0.0180955,0.265156,0.974599
451,1582,3.30918,-0.0195261,0.265613,0.973777
461,1572,3.31038,-0.0166144,0.26491,0.972826
471,1562,3.31008,-0.0173105,0.264492,0.972499
481,1552,3.3095,-0.0187585,0.265362,0.971692
491,1542,3.30851,-0.0196388,0.265407,0.971066
501,1532,3.31112,-0.0167285,0.263842,0.970392
511,1522,3.30974,-0.0174247,0.264301,0.969859
521,1512,3.30968,-0.0180834,0.264278,0.969357
531,1502,3.30826,-0.0190035,0.264722,0.969086
541,1492,3.30966,-0.0168295,0.263616,0.967601
551,1482,3.30897,-0.0177405,0.264472,0.966937
561,1472,3.30863,-0.0183721,0.264062,0.966663
571,1462,3.3081,-0.0198204,0.26452,0.965841
581,1452,3.30969,-0.0168755,0.263407,0.964893
591,1442,3.3095,-0.0176793,0.263412,0.964599
601,1432,3.30948,-0.0193081,0.26387,0.963677
611,1422,3.30782,-0.0201338,0.264792,0.963028
621,1412,3.30961,-0.0172289,0.262743,0.96215
631,1402,3.30816,-0.0185611,0.263214,0.961586
641,1392,3.30772,-0.0194002,0.263659,0.960924
651,1382,3.3092,-0.0164011,0.262558,0.960276
661,1372,3.30834,-0.0178842,0.263009,0.959154
671,1362,3.30815,-0.0186127,0.262997,0.958821
681,1352,3.30751,-0.0203593,0.263458,0.957847
691,1342,3.30908,-0.0172449,0.261871,0.957229
701,1332,3.30698,-0.0188547,0.262793,0.956016
711,1322,3.30734,-0.0197183,0.2628,0.955689
721,1312,3.3061,-0.0203866,0.26325,0.955117
731,1302,3.30874,-0.0181362,0.261652,0.954128
741,1292,3.30712,-0.0190163,0.262116,0.953486
751,1282,3.30563,-0.0205568,0.262989,0.952601
761,1272,3.30816,-0.017416,0.260981,0.951955
771,1262,3.30782,-0.0183139,0.261438,0.951307
781,1252,3.30637,-0.0200684,0.261921,0.95039
791,1242,3.30726,-0.0169012,0.260787,0.949471
801,1232,3.3066,-0.0183298,0.261248,0.948627
811,1222,3.30697,-0.0200714,0.261261,0.947985
821,1212,3.30527,-0.0207833,0.261724,0.947406
831,1202,3.30686,-0.0185164,0.26058,0.94611
841,1192,3.30699,-0.0194332,0.260567,0.945706
851,1182,3.30516,-0.0208607,0.261043,0.944901
861,1172,3.30675,-0.0177538,0.259432,0.944233
871,1162,3.30678,-0.0193954,0.259891,0.943285
881,1152,3.30543,-0.0210362,0.260381,0.942425
891,1142,3.30661,-0.0179432,0.259648,0.941453
901,1132,3.30623,-0.0196534,0.259804,0.940495
911,1122,3.30482,-0.0203811,0.259712,0.94023
921,1112,3.30705,-0.0179231,0.258552,0.938966
931,1102,3.30592,-0.0199052,0.259041,0.937978
941,1092,3.30429,-0.0212307,0.259517,0.937181
951,1082,3.30719,-0.0181481,0.257885,0.936473
961,1072,3.30537,-0.0196893,0.258366,0.93561
971,1062,3.30459,-0.0213551,0.258857,0.934723
981,1052,3.30559,-0.0190999,0.257703,0.933408
991,1042,3.30487,-0.0198717,0.258182,0.932649
1001,1032,3.30443,-0.0217278,0.258662,0.931842
1011,1022,3.30444,-0.0192277,0.257503,0.930457
1021,1012,3.30409,-0.0209725,0.25798,0.929633
1031,1002,3.30536,-0.0175788,0.256332,0.929002
1041,992,3.30547,-0.0194058,0.256805,0.928001
1051,982,3.30347,-0.0210312,0.257285,0.927087
1061,972,3.30587,-0.0184692,0.25661,0.925855
1071,962,3.30376,-0.0202085,0.256609,0.924926
1081,952,3.30298,-0.0219099,0.257084,0.923975
1091,942,3.3037,-0.0194821,0.256417,0.922704
1101,932,3.30343,-0.0212495,0.256419,0.921785
1111,922,3.30387,-0.0188209,0.255248,0.920701
1121,912,3.30438,-0.0204246,0.255233,0.919658
1131,902,3.30186,-0.0224082,0.256231,0.918577
1141,892,3.30449,-0.0199168,0.254563,0.917598
1151,882,3.30179,-0.021554,0.255544,0.916379
1161,872,3.30328,-0.0191471,0.254356,0.915033
1171,862,3.30357,-0.0207788,0.254365,0.914477
1181,852,3.30101,-0.0224634,0.254856,0.913549
1191,842,3.30297,-0.0200783,0.253678,0.912223
1201,832,3.30244,-0.0218583,0.254269,0.911301
1211,822,3.30239,-0.0203329,0.253974,0.909295
1221,812,3.30181,-0.0220476,0.253481,0.908687
1231,802,3.30369,-0.019442,0.2523,0.907446
1241,792,3.30193,-0.0210977,0.252795,0.906522
1251,782,3.30269,-0.0186972,0.251585,0.905108
1261,772,3.30071,-0.0214697,0.252591,0.903519
1271,762,3.30048,-0.0230524,0.252591,0.902966
1281,752,3.30188,-0.0204903,0.251387,0.901638
1291,742,3.29982,-0.0234368,0.252405,0.899988
1301,732,3.30059,-0.0208174,0.251209,0.898704
1311,722,3.29972,-0.0235266,0.251711,0.897433
1321,712,3.30031,-0.0209446,0.250506,0.896105
1331,702,3.29888,-0.0238311,0.251535,0.894496
1341,692,3.30038,-0.0215031,0.25032,0.893057
1351,682,3.29932,-0.0239201,0.25083,0.891897
1361,672,3.3002,-0.021118,0.249612,0.890623
1371,662,3.29872,-0.0238099,0.250127,0.889376
1381,652,3.30028,-0.0212715,0.248901,0.887975
1391,642,3.29769,-0.0241182,0.249938,0.886366
1401,632,3.29894,-0.0222993,0.248715,0.88475
1411,622,3.30029,-0.0196659,0.247492,0.883386
1421,612,3.29865,-0.0224616,0.248008,0.882343
1431,602,3.30025,-0.0207445,0.246773,0.880441
1441,592,3.29812,-0.0237745,0.247835,0.878795
1451,582,3.29894,-0.0219599,0.246595,0.877131
1461,572,3.29667,-0.0249618,0.247644,0.875459
1471,562,3.29727,-0.0231244,0.246401,0.873791
1481,552,3.29842,-0.0211643,0.245161,0.87219
1491,542,3.29593,-0.0242473,0.24646,0.870489
1501,532,3.29734,-0.0224424,0.244968,0.868799
1511,522,3.29592,-0.0252618,0.245491,0.867731
1521,512,3.29652,-0.0235224,0.24477,0.865459
1531,502,3.29681,-0.0218245,0.243514,0.863717
1541,492,3.29539,-0.0245709,0.244046,0.862472
1551,482,3.29529,-0.0228623,0.243335,0.860416
1561,472,3.29767,-0.0210889,0.242063,0.858697
1571,462,3.29368,-0.0251698,0.243138,0.856654
1581,452,3.29466,-0.0231968,0.241867,0.854972
1591,442,3.29616,-0.0222847,0.24114,0.852627
1601,432,3.29267,-0.025626,0.242239,0.850876
1611,422,3.29382,-0.0236499,0.240944,0.849146
1621,412,3.29578,-0.0226352,0.239651,0.846945
1631,402,3.29243,-0.0269419,0.241059,0.845112
1641,392,3.2925,-0.0260467,0.240029,0.842681
1651,382,3.29278,-0.0242207,0.239287,0.840545
1661,372,3.29275,-0.0232343,0.238547,0.838152
1671,362,3.29401,-0.0223582,0.237236,0.836065
1681,352,3.29062,-0.0266269,0.238368,0.834026
1691,342,3.29134,-0.0259557,0.237616,0.831491
1701,332,3.29161,-0.0250649,0.23686,0.829019
1711,322,3.29189,-0.0252391,0.236112,0.826237
1721,312,3.29208,-0.0240061,0.235346,0.823808
1731,302,3.29122,-0.0231891,0.234583,0.821275
1741,292,3.28794,-0.0289425,0.235741,0.818787
1751,282,3.2887,-0.0279465,0.23537,0.816325
1761,272,3.28784,-0.0282227,0.234225,0.813442
1771,262,3.2879,-0.0284213,0.233451,0.810564
1781,252,3.28817,-0.0274205,0.232669,0.808006
1791,242,3.28845,-0.0276892,0.231903,0.80512
1801,232,3.28673,-0.0292754,0.231716,0.80139
1811,222,3.28575,-0.028174,0.23091,0.798763
1821,212,3.2848,-0.0297191,0.230733,0.795029
1831,202,3.28399,-0.0298311,0.22993,0.792074
1841,192,3.28625,-0.0347338,0.227104,0.787992
1851,182,3.28546,-0.0296615,0.225049,0.785144
1861,172,3.28529,-0.0372123,0.223613,0.781766
1871,162,3.28495,-0.0324471,0.221554,0.778833
1881,152,3.28427,-0.039799,0.2201,0.775526
1891,142,3.28869,-0.0228862,0.214781,0.772514
1901,132,3.28712,-0.0334977,0.213902,0.768981
1911,122,3.28654,-0.0283708,0.211822,0.766118
1921,112,3.28532,-0.0364933,0.210334,0.762635
1931,102,3.28428,-0.029542,0.208246,0.759192
1941,92,3.28745,-0.0308127,0.20407,0.755834
1951,82,3.28638,-0.0291836,0.203115,0.752234
1961,72,3.28646,-0.0336781,0.200431,0.749498
1971,62,3.28458,-0.042625,0.198893,0.746064
1981,52,3.28827,-0.0315357,0.194665,0.742392
1991,42,3.28679,-0.0276499,0.1931,0.738754
2001,32,3.29163,-0.0238048,0.187749,0.735424
2011,22,3.2891,-0.0362814,0.186715,0.731583
2021,12,3.28775,-0.0422386,0.18457,0.7281
2030,3,3.29177,-0.0309909,0.180289,0.724631

File: HUST_7-3_cycle_feature_matrix.csv
cycle_number,rul,voltage,current,capacity,charge_capacity
1,1297,3.30048,-0.00419295,0.365893,1.04223
7,1291,3.29435,-0.00515992,0.370108,1.0377
13,1285,3.29592,-0.00367996,0.368716,1.03686
19,1279,3.29585,-0.00461927,0.368736,1.03617
25,1273,3.29595,-0.00521931,0.368267,1.03581
31,1267,3.29801,-0.00310881,0.366887,1.03544
37,1261,3.29722,-0.00379939,0.367323,1.03479
43,1255,3.29729,-0.00429037,0.36732,1.03444
49,1249,3.29736,-0.00537896,0.367324,1.03362
55,1243,3.29687,-0.00535009,0.367322,1.03364
61,1237,3.29816,-0.0038326,0.366369,1.03266
67,1231,3.2979,-0.00427267,0.366386,1.03236
73,1225,3.2986,-0.00473208,0.366474,1.03215
79,1219,3.29727,-0.00538757,0.366817,1.0314
85,1213,3.29813,-0.00578116,0.366029,1.03138
91,1207,3.29896,-0.00382906,0.365441,1.03062
97,1201,3.29918,-0.00368863,0.365006,1.03085
103,1195,3.29842,-0.00431004,0.365441,1.03026
109,1189,3.29879,-0.0046928,0.365439,1.03022
115,1183,3.29869,-0.00527611,0.365436,1.02951
121,1177,3.29804,-0.0053193,0.365317,1.02947
127,1171,3.2998,-0.00322863,0.364496,1.02896
133,1165,3.29935,-0.00374701,0.364494,1.02855
139,1159,3.29931,-0.00423289,0.36448,1.02815
145,1153,3.29902,-0.0042604,0.364483,1.02815
151,1147,3.29918,-0.00474715,0.364488,1.02779
157,1141,3.29848,-0.00537429,0.364913,1.02716
163,1135,3.29951,-0.00517974,0.364051,1.02755
169,1129,3.29911,-0.00582834,0.36448,1.02693
175,1123,3.299,-0.00573761,0.364047,1.02712
181,1117,3.30044,-0.0037616,0.363527,1.02637
187,1111,3.29964,-0.0043283,0.36397,1.02583
193,1105,3.30003,-0.00427866,0.363531,1.026
199,1099,3.29974,-0.00433896,0.36353,1.02593
205,1093,3.29973,-0.00490405,0.363951,1.02535
211,1087,3.29937,-0.00507921,0.363947,1.02522
217,1081,3.30002,-0.00534497,0.363515,1.02514
223,1075,3.29947,-0.00554135,0.363525,1.025
229,1069,3.29971,-0.00580539,0.363103,1.02524
235,1063,3.30073,-0.00380865,0.362589,1.02421
241,1057,3.30051,-0.00389707,0.362589,1.02415
247,1051,3.30081,-0.0043025,0.362166,1.024
253,1045,3.29998,-0.00493099,0.3626,1.0234
259,1039,3.30057,-0.00486062,0.362157,1.02356
265,1033,3.29954,-0.00542637,0.362582,1.02298
271,1027,3.30054,-0.00575883,0.362153,1.02287
277,1021,3.30006,-0.005892,0.362166,1.02278
283,1015,3.30182,-0.00368816,0.361211,1.02232
289,1009,3.30177,-0.00430259,0.361224,1.02187
295,1003,3.30114,-0.00431545,0.361227,1.02185
301,997,3.30196,-0.00482677,0.360798,1.02159
307,991,3.30073,-0.00483387,0.361223,1.02146
313,985,3.30148,-0.00530557,0.36132,1.01973
319,979,3.30054,-0.00590462,0.361362,1.02063
325,973,3.30283,-0.00367087,0.359928,1.02033
331,967,3.30242,-0.00364451,0.359851,1.02035
337,961,3.30243,-0.00418817,0.359858,1.01994
343,955,3.30255,-0.00471722,0.359848,1.01951
349,949,3.3017,-0.00529629,0.360286,1.01894
355,943,3.30213,-0.00570424,0.359854,1.01876
361,937,3.30128,-0.00578492,0.359854,1.01868
367,931,3.30384,-0.00361595,0.358487,1.01832
373,925,3.30276,-0.00420927,0.358919,1.01774
379,919,3.30353,-0.00464671,0.358478,1.01751
385,913,3.30251,-0.00482277,0.35891,1.01725
391,907,3.3026,-0.00532205,0.358911,1.01688
397,901,3.30228,-0.00586462,0.3589,1.01642
403,895,3.30332,-0.00375698,0.358387,1.01576
409,889,3.30358,-0.00433276,0.357962,1.01542
415,883,3.30326,-0.00472568,0.357965,1.01503
421,877,3.30322,-0.00534407,0.357981,1.01468
427,871,3.30274,-0.00540092,0.358102,1.01463
433,865,3.30387,-0.00370578,0.357447,1.01365
439,859,3.3042,-0.00424504,0.357031,1.01335
445,853,3.30372,-0.0042203,0.357025,1.01336
451,847,3.30349,-0.00537309,0.357452,1.01238
457,841,3.30245,-0.00583693,0.35788,1.01189
463,835,3.30454,-0.00371862,0.356518,1.01148
469,829,3.30366,-0.0043337,0.35693,1.01083
475,823,3.30426,-0.00471082,0.356517,1.0107
481,817,3.30293,-0.00528648,0.357023,1.01012
487,811,3.30559,-0.00307207,0.355147,1.00987
493,805,3.3046,-0.00371441,0.355572,1.00924
499,799,3.3045,-0.00473175,0.355997,1.00836
505,793,3.30429,-0.00469795,0.355568,1.00848
511,787,3.30411,-0.00570065,0.355989,1.00758
517,781,3.30558,-0.00316389,0.354627,1.00747
523,775,3.30465,-0.00429734,0.355482,1.00637
529,769,3.30528,-0.00432695,0.354625,1.00656
535,763,3.30403,-0.00539149,0.355482,1.00551
541,757,3.30482,-0.00578912,0.354619,1.00541
547,751,3.30551,-0.00384082,0.354116,1.00462
553,745,3.30595,-0.00418426,0.354121,1.00438
559,739,3.3052,-0.00481356,0.354123,1.00389
565,733,3.30497,-0.00531894,0.354122,1.00349
571,727,3.3062,-0.00327453,0.353194,1.0029
577,721,3.30564,-0.00424591,0.353624,1.00203
583,715,3.30584,-0.00478245,0.353192,1.00172
589,709,3.30511,-0.00538761,0.353611,1.00113
595,703,3.3055,-0.00588929,0.353186,1.00083
601,697,3.30615,-0.00385198,0.352682,1.0001
607,691,3.30612,-0.00474455,0.352678,0.999398
613,685,3.30562,-0.00545415,0.353029,0.998725
619,679,3.30665,-0.00332437,0.352167,0.998191
625,673,3.30692,-0.00423934,0.351749,0.9976
631,667,3.30612,-0.00479888,0.352172,0.997024
637,661,3.30618,-0.0052582,0.351747,0.996786
643,655,3.30738,-0.00370281,0.351248,0.995689
649,649,3.30651,-0.00428059,0.351669,0.995113
655,643,3.30589,-0.00545014,0.352156,0.994097
661,637,3.30699,-0.00374429,0.35118,0.993223
667,631,3.30666,-0.00417289,0.351168,0.992881
673,625,3.30596,-0.00544678,0.351605,0.991803
679,619,3.30679,-0.00375995,0.351103,0.990758
685,613,3.30666,-0.004254,0.351106,0.99041
691,607,3.30535,-0.00539974,0.351521,0.98936
697,601,3.30711,-0.0037357,0.350607,0.988225
703,595,3.306165,-0.00484032,0.351023,0.987447
709,589,3.30559,-0.0058681,0.351584,0.98654
715,583,3.30721,-0.0037771,0.350092,0.986044
721,577,3.30521,-0.00497114,0.351374,0.984758
727,571,3.30754,-0.00319062,0.349588,0.984133
733,565,3.30632,-0.00439975,0.350022,0.98305
739,559,3.30644,-0.00534615,0.350013,0.98235
745,553,3.30707,-0.00383956,0.349525,0.98115
751,547,3.30576,-0.00552087,0.350387,0.979621
757,541,3.30737,-0.00333973,0.349115,0.979195
763,535,3.30609,-0.00499127,0.349898,0.977695
769,529,3.3066,-0.00716448,0.348171,0.976703
775,523,3.30733,-0.00565271,0.347674,0.975532
781,517,3.3066,-0.00410681,0.347215,0.974209
787,511,3.30718,-0.00715527,0.34676,0.972408
793,505,3.30601,-0.0095682,0.347188,0.971763
799,499,3.30745,-0.00653177,0.345926,0.970655
805,493,3.30715,-0.00759462,0.345837,0.969825
811,487,3.3082,-0.00193706,0.344124,0.967976
817,481,3.30832,-0.00616113,0.343226,0.967011
823,475,3.30794,-0.0052072,0.343581,0.964922
829,469,3.30775,-0.00487511,0.34315,0.963973
835,463,3.3087,-0.00322925,0.342229,0.96298
841,457,3.30763,-0.00896186,0.34223,0.961437
847,451,3.30961,-0.00368485,0.340052,0.959644
853,445,3.30766,-0.00626508,0.341246,0.958669
859,439,3.30868,-0.00788925,0.339989,0.956854
865,433,3.30889,-0.00613872,0.338724,0.955847
871,427,3.30875,-0.00389629,0.338655,0.95383
877,421,3.30855,-0.00360102,0.338241,0.952853
883,415,3.30945,-0.00791554,0.337334,0.951494
889,409,3.30865,-0.00669439,0.336914,0.949886
895,403,3.30926,-0.00434933,0.336432,0.948035
901,397,3.30838,-0.00548625,0.336427,0.94715
907,391,3.30913,-0.00754601,0.335529,0.944921
913,385,3.30999,-0.00462124,0.334631,0.94359
919,379,3.30839,-0.00635273,0.335452,0.942034
925,373,3.30952,-0.00836232,0.33372,0.940028
931,367,3.30869,-0.00810152,0.333713,0.938878
937,361,3.30885,-0.00580017,0.333239,0.936981
943,355,3.30966,-0.00786911,0.331919,0.934829
949,349,3.30837,-0.00959719,0.332751,0.93357
955,343,3.30893,-0.00569588,0.33144,0.931485
961,337,3.30988,-0.00232354,0.330257,0.929266
967,331,3.30836,-0.00954156,0.33095,0.927769
973,325,3.30816,-0.00631529,0.330474,0.925232
979,319,3.30925,-0.00430513,0.329176,0.923297
985,313,3.30949,-0.00745763,0.328699,0.921456
991,307,3.30747,-0.00832889,0.329518,0.919239
997,301,3.30879,-0.00477326,0.327806,0.917242
1003,295,3.30921,-0.0064856,0.326509,0.91537
1009,289,3.30864,-0.0074934,0.327378,0.913307
1015,283,3.30806,-0.00396002,0.326019,0.910918
1021,277,3.30824,-0.00776873,0.325541,0.908585
1027,271,3.30887,-0.0056996,0.324794,0.906581
1033,265,3.30767,-0.00389066,0.325019,0.904052
1039,259,3.30911,-0.00598368,0.323244,0.902026
1045,253,3.3075,-0.00693631,0.323739,0.90015
1051,247,3.30689,-0.00561142,0.323679,0.897106
1057,241,3.30669,-0.00644054,0.322795,0.894427
1063,235,3.30854,-0.00303431,0.320686,0.892386
1069,229,3.30743,-0.00870743,0.321462,0.889752
1075,223,3.30739,-0.00580018,0.320584,0.887
1081,217,3.30775,-0.00246452,0.319714,0.884558
1087,211,3.30747,-0.00669638,0.319252,0.881985
1093,205,3.3078,-0.00325408,0.318513,0.879619
1099,199,3.30745,-0.00755802,0.317929,0.876993
1105,193,3.30633,-0.00693151,0.31752,0.874886
1111,187,3.30634,-0.00411396,0.317065,0.871947
1117,181,3.30625,-0.00842401,0.316743,0.869335
1123,175,3.30505,-0.00992095,0.317395,0.866974
1129,169,3.3052,-0.00848459,0.315713,0.86348
1135,163,3.3069,-0.00545443,0.314007,0.861073
1141,157,3.30588,-0.00554112,0.314396,0.85839
1147,151,3.30517,-0.0079074,0.313953,0.855887
1153,145,3.30527,-0.00497926,0.313089,0.853084
1159,139,3.30546,-0.00367485,0.312235,0.850449
1165,133,3.30544,-0.00545259,0.311383,0.847145
1171,127,3.30595,-0.00346255,0.310526,0.844983
1177,121,3.30516,-0.00792198,0.310166,0.842338
1183,115,3.30431,-0.00358338,0.309667,0.836147
1189,109,3.30445,-0.00651112,0.308793,0.83624
1195,103,3.30467,-0.00497954,0.307942,0.833765
1201,97,3.30475,-0.00797495,0.307098,0.830923
1207,91,3.30498,-0.00592046,0.30626,0.828837
1213,85,3.30392,-0.00594364,0.306647,0.826307
1219,79,3.30342,-0.00749381,0.305797,0.823132
1225,73,3.30403,-0.0030487,0.304447,0.820198
1231,67,3.30374,-0.00885216,0.304128,0.817905
1237,61,3.30373,-0.00303993,0.302471,0.81454
1243,55,3.30378,-0.00682294,0.301611,0.812511
1249,49,3.30318,-0.00390987,0.301211,0.809517
1255,43,3.30313,-0.00226801,0.300375,0.80708
1261,37,3.30258,-0.0077547,0.300483,0.805047
1267,31,3.30154,-0.00468798,0.299139,0.801972
1273,25,3.30093,-0.0086971,0.298714,0.799771
1279,19,3.30064,-0.0101235,0.297488,0.796791
1285,13,3.30063,-0.00705478,0.296669,0.793997
1291,7,3.30147,-0.00337863,0.295035,0.791831
1295,3,3.30147,-0.00181349,0.294633,0.79061