Folder: MyBatteryML/hust_correlation_analysis/matrices (part 25)

File: HUST_7-4_cycle_feature_matrix.csv
cycle_number,rul,voltage,current,capacity,charge_capacity
1,1395,3.3072,-0.00540771,0.329013,1.03156
8,1388,3.30009,-0.0068703,0.333406,1.02637
15,1381,3.3001,-0.0080735,0.333109,1.02575
22,1374,3.30159,-0.00689157,0.331886,1.0245
29,1367,3.30049,-0.0073544,0.332147,1.02412
36,1360,3.29996,-0.00794101,0.332229,1.02371
43,1353,3.30281,-0.00576844,0.330717,1.02325
50,1346,3.30221,-0.00692919,0.331134,1.02232
57,1339,3.30131,-0.00750459,0.331139,1.02197
64,1332,3.3011,-0.00816789,0.331562,1.02136
71,1325,3.3031,-0.006047,0.330066,1.02092
78,1318,3.30287,-0.00692402,0.330198,1.02034
85,1311,3.30232,-0.00695874,0.330059,1.02032
92,1304,3.30192,-0.00804231,0.330498,1.01949
99,1297,3.30403,-0.0057552,0.328986,1.0191
106,1290,3.30371,-0.00631886,0.328981,1.0187
113,1283,3.30336,-0.00688977,0.329038,1.01819
120,1276,3.30335,-0.00708121,0.329109,1.01821
127,1269,3.30361,-0.00742116,0.328983,1.01798
134,1262,3.30225,-0.0077896,0.329411,1.01761
141,1255,3.30277,-0.00820436,0.329044,1.01736
148,1248,3.30305,-0.00883105,0.329034,1.01693
155,1241,3.30451,-0.00655511,0.327955,1.01636
162,1234,3.30452,-0.00703322,0.327958,1.01607
169,1227,3.30337,-0.00769049,0.328374,1.01546
176,1220,3.30305,-0.00798111,0.328746,1.01524
183,1213,3.30392,-0.00798499,0.328301,1.01536
190,1206,3.30423,-0.00848703,0.327944,1.01505
197,1199,3.30354,-0.00860861,0.327948,1.01499
204,1192,3.30448,-0.00631992,0.327294,1.01432
211,1185,3.30435,-0.00682076,0.327733,1.01393
218,1178,3.30453,-0.007014,0.327637,1.01375
225,1171,3.30484,-0.00685175,0.327606,1.01377
232,1164,3.30432,-0.0076482,0.32763,1.0133
239,1157,3.30357,-0.00769847,0.327629,1.01327
246,1150,3.30341,-0.00820994,0.327636,1.01295
253,1143,3.30519,-0.00593305,0.326566,1.01245
260,1136,3.30577,-0.0060966,0.326135,1.01247
267,1129,3.30614,-0.00644358,0.32573,1.01243
274,1122,3.30493,-0.00689924,0.325714,1.01199
281,1115,3.30527,-0.00759255,0.326149,1.01154
288,1108,3.30392,-0.00770769,0.326573,1.0113
295,1101,3.30464,-0.00803216,0.326635,1.01122
302,1094,3.30646,-0.0058566,0.325071,1.01059
309,1087,3.30664,-0.00580752,0.324647,1.0108
316,1080,3.30728,-0.00652536,0.324286,1.01036
323,1073,3.30654,-0.00658183,0.324649,1.0103
330,1066,3.30649,-0.0069815,0.324279,1.01004
337,1059,3.30624,-0.00780006,0.324295,1.00951
344,1052,3.30556,-0.00775269,0.324705,1.00939
351,1045,3.3058,-0.00834603,0.324715,1.009
358,1038,3.3063,-0.00881922,0.324294,1.00885
365,1031,3.3076,-0.00652458,0.323226,1.00832
372,1024,3.30803,-0.00655004,0.32279,1.00841
379,1017,3.3074,-0.00712624,0.323351,1.00791
386,1010,3.30743,-0.00769849,0.323221,1.00754
393,1003,3.307,-0.00822845,0.323223,1.00719
400,996,3.30643,-0.00832573,0.323217,1.00711
407,989,3.30783,-0.00652183,0.322559,1.00609
414,982,3.3072,-0.00664939,0.322674,1.00463
421,975,3.3078,-0.00695065,0.322542,1.00574
428,968,3.30688,-0.00750924,0.322906,1.00535
435,961,3.30804,-0.00807361,0.322119,1.00513
442,954,3.30707,-0.00810702,0.32297,1.0051
449,947,3.30783,-0.00885358,0.321711,1.00478
456,940,3.30917,-0.00691574,0.321046,1.00382
463,933,3.30924,-0.0068574,0.320628,1.00401
470,926,3.30879,-0.00769692,0.321053,1.00333
477,919,3.30867,-0.00826695,0.321056,1.00295
484,912,3.30937,-0.00547618,0.320335,1.00269
491,905,3.3102,-0.00604066,0.319564,1.00248
498,898,3.30905,-0.00660539,0.319977,1.00196
505,891,3.30966,-0.00716156,0.319556,1.00171
512,884,3.30877,-0.00783724,0.319986,1.00113
519,877,3.30892,-0.00822483,0.319989,1.0009
526,870,3.30756,-0.00893471,0.320528,0.998933
533,863,3.30979,-0.00651069,0.318977,0.999907
540,856,3.30939,-0.00766685,0.319329,0.998994
547,849,3.30899,-0.00823287,0.319308,0.998566
554,842,3.30809,-0.00883389,0.319727,0.998038
561,835,3.30998,-0.00660872,0.318363,0.99754
568,828,3.30993,-0.00681754,0.318232,0.997413
575,821,3.30894,-0.00749857,0.319013,0.996777
582,814,3.31031,-0.00515631,0.317936,0.996248
589,807,3.31004,-0.0063576,0.318352,0.995292
596,800,3.30998,-0.00689354,0.317932,0.995057
603,793,3.3101,-0.00747043,0.317938,0.994693
610,786,3.30955,-0.00869676,0.317991,0.99374
617,779,3.31106,-0.00650765,0.316871,0.993238
624,772,3.31052,-0.00718381,0.316853,0.992637
631,765,3.31059,-0.00824858,0.316923,0.991944
638,758,3.31098,-0.00602676,0.316227,0.991162
645,751,3.31175,-0.00708831,0.315844,0.990561
652,744,3.30979,-0.00750346,0.31661,0.990087
659,737,3.31197,-0.00598076,0.31555,0.989018
666,730,3.31065,-0.00698069,0.315956,0.988179
673,723,3.31101,-0.00756681,0.315961,0.987798
680,716,3.31032,-0.00894234,0.316025,0.98676
687,709,3.31173,-0.0066542,0.31495,0.986182
694,702,3.31063,-0.00783964,0.315723,0.985188
701,695,3.31121,-0.00877502,0.31449,0.984966
708,688,3.31159,-0.0069579,0.314645,0.983615
715,681,3.31121,-0.00776712,0.314654,0.983105
722,674,3.31103,-0.00899723,0.314726,0.982202
729,667,3.3123,-0.00672123,0.313642,0.981568
736,660,3.31154,-0.00791949,0.314051,0.980586
743,653,3.31302,-0.00608972,0.312998,0.97973
750,646,3.31208,-0.00716236,0.313415,0.978869
757,639,3.31153,-0.00843196,0.313475,0.977989
764,632,3.31261,-0.00662334,0.312768,0.97693
771,625,3.31161,-0.00787284,0.313182,0.975954
778,618,3.3111,-0.00903353,0.313177,0.975142
785,611,3.31175,-0.00726628,0.312515,0.973991
792,604,3.31081,-0.00851723,0.312933,0.973009
799,597,3.31132,-0.00681936,0.312288,0.971853
806,590,3.31032,-0.00802146,0.313064,0.970873
813,583,3.31015,-0.00754931,0.312699,0.969893
820,576,3.31207,-0.0103093,0.31079,0.968871
827,569,3.31151,-0.0103747,0.310779,0.967512
834,562,3.31244,-0.00737711,0.309718,0.966095
841,555,3.31228,-0.00701912,0.309432,0.965191
848,548,3.31227,-0.0118976,0.309066,0.963484
855,541,3.3133,-0.00833717,0.308414,0.962497
862,534,3.31339,-0.00885292,0.307703,0.960907
869,527,3.31229,-0.00709796,0.307168,0.95962
876,520,3.3137,-0.0112225,0.306108,0.958724
883,513,3.31243,-0.0115792,0.306519,0.957029
890,506,3.31333,-0.00678266,0.305038,0.955624
897,499,3.31308,-0.00698504,0.304621,0.954323
904,492,3.31329,-0.0118806,0.30439,0.952648
911,485,3.31225,-0.0121628,0.304867,0.951141
918,478,3.31363,-0.00880734,0.302903,0.950044
925,471,3.31459,-0.00466686,0.301444,0.948182
932,464,3.31314,-0.0124062,0.302264,0.946777
939,457,3.31425,-0.00976114,0.301101,0.945064
946,450,3.31396,-0.00645067,0.299959,0.943732
953,443,3.31372,-0.00597327,0.300135,0.9415
960,436,3.31304,-0.0121597,0.299725,0.940207
967,429,3.31466,-0.00739666,0.297846,0.938858
974,422,3.31384,-0.00839965,0.298429,0.936823
981,415,3.31306,-0.0131334,0.298033,0.935239
988,408,3.31434,-0.0103553,0.296562,0.933734
995,401,3.31441,-0.00839315,0.296322,0.931307
1002,394,3.31313,-0.00713723,0.295921,0.929684
1009,387,3.31422,-0.00949922,0.29451,0.92746
1016,380,3.31482,-0.00837129,0.293803,0.926151
1023,373,3.31278,-0.0092061,0.294617,0.923792
1030,366,3.31314,-0.0132176,0.293564,0.921685
1037,359,3.31426,-0.00892758,0.292107,0.919841
1044,352,3.31449,-0.00684493,0.291463,0.917628
1051,345,3.31424,-0.0107756,0.290821,0.915456
1058,338,3.31287,-0.0102634,0.29129,0.913098
1065,331,3.31302,-0.00655212,0.290232,0.91082
1072,324,3.31348,-0.0111537,0.289135,0.908245
1079,317,3.3135,-0.00901241,0.288493,0.906048
1086,310,3.31398,-0.00537475,0.287453,0.903612
1093,303,3.31414,-0.0108654,0.286808,0.90179
1100,296,3.3126,-0.00779124,0.286301,0.898656
1107,289,3.31256,-0.00728567,0.286165,0.896558
1114,282,3.31201,-0.0128423,0.285926,0.894581
1121,275,3.3119,-0.00947455,0.285227,0.891923
1128,268,3.31323,-0.0119206,0.283431,0.889723
1135,261,3.3119,-0.0121055,0.283944,0.887054
1142,254,3.31279,-0.00855662,0.282568,0.884561
1149,247,3.31183,-0.00701889,0.282337,0.881823
1156,240,3.31119,-0.0102974,0.281695,0.878807
1163,233,3.31181,-0.00521043,0.280192,0.876141
1170,226,3.31179,-0.0103421,0.279629,0.873246
1177,219,3.312,-0.00551541,0.27859,0.870162
1184,212,3.3121,-0.0103498,0.277551,0.867649
1191,205,3.31119,-0.00723192,0.277254,0.864671
1198,198,3.31208,-0.0118665,0.27589,0.862353
1205,191,3.31245,-0.00872167,0.274918,0.85954
1212,184,3.31181,-0.0119808,0.274229,0.856612
1219,177,3.31196,-0.0103533,0.273608,0.85404
1226,170,3.31097,-0.00882645,0.273376,0.851272
1233,163,3.31088,-0.00781616,0.272746,0.848293
1240,156,3.30929,-0.0128298,0.272824,0.845389
1247,149,3.31022,-0.00520069,0.270913,0.841595
1254,142,3.31053,-0.0100669,0.270064,0.839097
1261,135,3.31023,-0.00750945,0.269443,0.835751
1268,128,3.31045,-0.0123732,0.268421,0.833326
1275,121,3.31052,-0.00609888,0.266793,0.829875
1282,114,3.31144,-0.0114225,0.266214,0.827272
1289,107,3.31004,-0.0116408,0.266338,0.824639
1296,100,3.31072,-0.0108497,0.264304,0.820654
1303,93,3.31041,-0.0089356,0.263874,0.818084
1310,86,3.31103,-0.00558468,0.262464,0.815419
1317,79,3.31052,-0.011338,0.262237,0.812267
1324,72,3.31067,-0.00619861,0.260826,0.809322
1331,65,3.30955,-0.00803622,0.261008,0.807071
1338,58,3.30871,-0.0103801,0.260388,0.803416
1345,51,3.30919,-0.0138264,0.259368,0.800568
1352,44,3.30865,-0.0110308,0.258765,0.797349
1359,37,3.30927,-0.00762298,0.25735,0.794643
1366,30,3.30808,-0.013447,0.25713,0.791514
1373,23,3.30954,-0.00672553,0.255115,0.788487
1380,16,3.30856,-0.00507735,0.254901,0.785712
1387,9,3.30878,-0.00680443,0.25388,0.782514
1393,3,3.30735,-0.0151326,0.25388,0.780382

File: HUST_7-5_cycle_feature_matrix.csv
cycle_number,rul,voltage,current,capacity,charge_capacity
3,1875,3.29036,-0.0103601,0.322971,1.03002
12,1866,3.29708,-0.00988529,0.318436,1.04221
21,1857,3.29959,-0.009302,0.316364,1.046
30,1848,3.3019,-0.00816002,0.313974,1.04763
39,1839,3.30447,-0.0074171,0.312411,1.04877
48,1830,3.30404,-0.00814832,0.312408,1.04829
57,1821,3.30425,-0.00875656,0.312408,1.04787
66,1812,3.30343,-0.0094198,0.312025,1.0476
75,1803,3.3042,-0.00878179,0.31131,1.04589
84,1794,3.30433,-0.00924059,0.311152,1.04559
93,1785,3.30592,-0.0075453,0.310224,1.04478
102,1776,3.30531,-0.00816371,0.31059,1.04415
111,1767,3.30476,-0.00984757,0.310996,1.04294
120,1758,3.30531,-0.00763752,0.310257,1.04219
129,1749,3.30514,-0.00875709,0.310658,1.04131
138,1740,3.30524,-0.00922385,0.310661,1.04101
147,1731,3.30558,-0.00768736,0.310321,1.03969
156,1722,3.30479,-0.00826997,0.310328,1.03932
165,1713,3.30453,-0.00872699,0.310706,1.0388
174,1704,3.30474,-0.00978362,0.310706,1.0381
183,1695,3.3061,-0.00764811,0.310152,1.03729
192,1686,3.3046,-0.00833518,0.310359,1.03646
201,1677,3.30481,-0.00879295,0.310363,1.03639
210,1668,3.3044,-0.00933148,0.310731,1.03577
219,1659,3.30307,-0.0108844,0.311861,1.03543
228,1650,3.30483,-0.00783948,0.310363,1.03431
237,1641,3.30444,-0.0084376,0.310389,1.03396
246,1632,3.30457,-0.0094599,0.310514,1.03335
255,1623,3.30321,-0.0101373,0.310781,1.03271
264,1614,3.30526,-0.00769855,0.3093,1.03253
273,1605,3.3055,-0.00823922,0.309285,1.03213
282,1596,3.3044,-0.00887725,0.309682,1.0316
291,1587,3.3032,-0.0100926,0.310462,1.03044
300,1578,3.3054,-0.00775749,0.309078,1.03011
309,1569,3.30557,-0.00832862,0.309063,1.02978
318,1560,3.30384,-0.00897148,0.310202,1.029
327,1551,3.30448,-0.0094527,0.309374,1.02892
336,1542,3.30407,-0.00996828,0.309843,1.02843
345,1533,3.30461,-0.00781786,0.309041,1.02629
354,1524,3.30531,-0.00881114,0.309053,1.02701
363,1515,3.30382,-0.0089738,0.309436,1.02671
372,1506,3.30365,-0.010076,0.309851,1.02587
381,1497,3.30544,-0.00772932,0.308726,1.02538
390,1488,3.305,-0.00842262,0.308735,1.02493
399,1479,3.30378,-0.0089669,0.309594,1.0242
408,1470,3.30443,-0.00943153,0.309095,1.02398
417,1461,3.30371,-0.0101707,0.309497,1.02335
426,1452,3.30483,-0.00778575,0.308373,1.02286
435,1443,3.30494,-0.00843042,0.308774,1.02229
444,1434,3.30393,-0.00903134,0.308776,1.02191
453,1425,3.30465,-0.00950639,0.308842,1.02175
462,1416,3.30336,-0.0100601,0.30918,1.0211
471,1407,3.30488,-0.00788371,0.308515,1.02045
480,1398,3.30494,-0.00844099,0.30818,1.02012
489,1389,3.30401,-0.00960037,0.308457,1.01919
498,1380,3.30365,-0.0101879,0.308845,1.0186
507,1371,3.30545,-0.00786837,0.308153,1.01801
516,1362,3.30389,-0.00847671,0.308139,1.01757
525,1353,3.3044,-0.00896638,0.308143,1.01726
534,1344,3.30436,-0.00947386,0.308137,1.01692
543,1335,3.30462,-0.00787156,0.307815,1.01558
552,1326,3.30492,-0.0083834,0.307805,1.01521
561,1317,3.304,-0.00908025,0.308195,1.01458
570,1308,3.304,-0.00962315,0.308202,1.01423
579,1299,3.30312,-0.0102676,0.308599,1.01363
588,1290,3.30456,-0.00798462,0.307471,1.01305
597,1281,3.30462,-0.00846305,0.307492,1.01282
606,1272,3.30353,-0.00970689,0.307889,1.01183
615,1263,3.3037,-0.0101568,0.307898,1.01159
624,1254,3.30522,-0.00788495,0.30686,1.011
633,1245,3.30361,-0.00917716,0.307576,1.00978
642,1236,3.30429,-0.0090999,0.307137,1.00991
651,1227,3.30314,-0.0102798,0.307565,1.00905
660,1218,3.30462,-0.00802825,0.306911,1.00825
669,1209,3.3052,-0.00844038,0.306443,1.00821
678,1200,3.30337,-0.00980135,0.307253,1.00701
687,1191,3.30337,-0.0103238,0.307246,1.00664
696,1182,3.30524,-0.00796935,0.30618,1.00606
705,1173,3.30364,-0.00890011,0.30654,1.00536
714,1164,3.30408,-0.00966933,0.306538,1.00489
723,1155,3.30358,-0.0103982,0.306938,1.00424
732,1146,3.30394,-0.00865815,0.30624,1.00322
741,1137,3.30441,-0.00916731,0.306247,1.0029
750,1128,3.30398,-0.00977493,0.306655,1.00235
759,1119,3.30435,-0.00813395,0.305934,1.00117
768,1110,3.30376,-0.00920463,0.306329,1.0003
777,1101,3.30439,-0.00978333,0.305915,1.00004
786,1092,3.30322,-0.0104488,0.306312,0.999414
795,1083,3.3035,-0.00817433,0.305569,0.998562
804,1074,3.30443,-0.00927707,0.305588,0.997937
813,1065,3.30339,-0.00991492,0.306116,0.997365
822,1056,3.3045,-0.00811937,0.305767,0.996321
831,1047,3.30375,-0.00879567,0.305284,0.995865
840,1038,3.30306,-0.0099852,0.30569,0.994904
849,1029,3.30246,-0.0105345,0.306106,0.994434
858,1020,3.30387,-0.00874278,0.304983,0.993509
867,1011,3.30402,-0.0092861,0.304971,0.993395
876,1002,3.30321,-0.0105191,0.305397,0.992219
885,993,3.30441,-0.00818889,0.304668,0.991442
894,984,3.30344,-0.00938465,0.305093,0.990572
903,975,3.30292,-0.0105821,0.305086,0.989756
912,966,3.30339,-0.00901002,0.304787,0.988375
921,957,3.30283,-0.0094599,0.305208,0.987961
930,948,3.30243,-0.0106193,0.30519,0.987152
939,939,3.30353,-0.00896865,0.304939,0.985939
948,930,3.30385,-0.00938347,0.304047,0.985823
957,921,3.30268,-0.0107531,0.304876,0.9846
966,912,3.30422,-0.008198,0.303763,0.984206
975,903,3.30317,-0.00948773,0.304165,0.983167
984,894,3.30161,-0.010875,0.305014,0.982034
993,885,3.30271,-0.0090641,0.304299,0.980906
1002,876,3.30142,-0.0102571,0.304708,0.979975
1011,867,3.30273,-0.00845367,0.303993,0.978849
1020,858,3.30241,-0.00962497,0.303991,0.978091
1029,849,3.30141,-0.0103092,0.304405,0.9775
1038,840,3.3029,-0.00899414,0.303633,0.976062
1047,831,3.30192,-0.00970248,0.304119,0.975461
1056,822,3.30346,-0.00776228,0.303055,0.974583
1065,813,3.30258,-0.00903304,0.303409,0.973629
1074,804,3.30101,-0.0103267,0.304257,0.972499
1083,795,3.30186,-0.00912493,0.303549,0.971005
1092,786,3.30093,-0.0103268,0.303976,0.970065
1101,777,3.30162,-0.0085352,0.303255,0.968892
1110,768,3.30071,-0.00988877,0.303675,0.967866
1119,759,3.29971,-0.01118,0.304089,0.966864
1128,750,3.30172,-0.00928737,0.302969,0.965974
1137,741,3.30097,-0.0104581,0.303398,0.965126
1146,732,3.30181,-0.00869562,0.302669,0.963855
1155,723,3.30107,-0.010521,0.303102,0.962589
1164,714,3.30137,-0.00863914,0.302393,0.961473
1173,705,3.29959,-0.0100502,0.303261,0.960276
1182,696,3.30031,-0.00881694,0.302554,0.958766
1191,687,3.30018,-0.00992045,0.302558,0.958315
1200,678,3.30166,-0.00871412,0.301853,0.956572
1209,669,3.30011,-0.0104642,0.302736,0.955213
1218,660,3.3,-0.00889334,0.302466,0.953734
1227,651,3.30023,-0.00999328,0.302468,0.953055
1236,642,3.30093,-0.00853243,0.301756,0.951645
1245,633,3.29832,-0.010818,0.303073,0.949767
1254,624,3.29956,-0.00950664,0.302383,0.948309
1263,615,3.29742,-0.0114808,0.303278,0.946786
1272,606,3.29855,-0.00953046,0.30256,0.945645
1281,597,3.29937,-0.00876916,0.301892,0.943916
1290,588,3.29852,-0.010228,0.302282,0.9427
1299,579,3.29855,-0.00898084,0.302013,0.940936
1308,570,3.298,-0.0109054,0.302471,0.939679
1317,561,3.29804,-0.00902971,0.301741,0.938361
1326,552,3.29718,-0.0110228,0.302201,0.937039
1335,543,3.29757,-0.0104262,0.302434,0.934858
1344,534,3.2977,-0.00903763,0.301715,0.933291
1353,525,3.2958,-0.0112412,0.302226,0.931667
1362,516,3.29602,-0.00988383,0.301906,0.930081
1371,507,3.29742,-0.00840253,0.301337,0.928568
1380,498,3.29578,-0.0105598,0.302094,0.926942
1389,489,3.29505,-0.0101991,0.301798,0.924645
1398,480,3.29641,-0.00927407,0.301166,0.922878
1407,471,3.29443,-0.0114389,0.302092,0.921262
1416,462,3.29447,-0.0158124,0.301405,0.919153
1425,453,3.29494,-0.0135551,0.3007,0.916872
1434,444,3.2948,-0.011235,0.299995,0.914611
1443,435,3.29419,-0.0136981,0.298595,0.912386
1452,426,3.29498,-0.0113945,0.297424,0.910492
1461,417,3.2943,-0.0108326,0.297659,0.908168
1470,408,3.29457,-0.0128536,0.296004,0.906142
1479,399,3.29527,-0.0106195,0.295361,0.904077
1488,390,3.29337,-0.0134934,0.29621,0.90203
1497,381,3.29367,-0.0151315,0.294615,0.899376
1506,372,3.29533,-0.00895667,0.292062,0.897423
1515,363,3.294,-0.00860348,0.292749,0.894833
1524,354,3.2947,-0.00794799,0.292067,0.892896
1533,345,3.2953,-0.00761267,0.28997,0.890135
1542,336,3.29485,-0.013077,0.28927,0.887419
1551,327,3.29585,-0.00884152,0.288136,0.885192
1560,318,3.29279,-0.010749,0.28904,0.882487
1569,309,3.29359,-0.013281,0.287401,0.880437
1578,300,3.2939,-0.00987442,0.286262,0.877717
1587,291,3.29358,-0.00932411,0.286014,0.875514
1596,282,3.29319,-0.014661,0.285303,0.872878
1605,273,3.29382,-0.00921899,0.283684,0.870099
1614,264,3.29395,-0.0129538,0.282525,0.867116
1623,255,3.29388,-0.0111542,0.281961,0.864665
1632,246,3.29328,-0.0147961,0.281129,0.861779
1641,237,3.29401,-0.0111226,0.279519,0.859261
1650,228,3.29366,-0.00948979,0.279274,0.856419
1659,219,3.29308,-0.0136785,0.278126,0.85338
1668,210,3.294,-0.00919864,0.276509,0.851271
1677,201,3.29332,-0.0137291,0.275818,0.847889
1686,192,3.29226,-0.0139782,0.27603,0.845142
1695,183,3.29358,-0.0143223,0.273638,0.842131
1704,174,3.29194,-0.014662,0.274287,0.839175
1713,165,3.29435,-0.0127763,0.270994,0.836374
1722,156,3.29429,-0.00992733,0.270296,0.833052
1731,147,3.29391,-0.00992848,0.270044,0.830561
1740,138,3.29454,-0.0105257,0.267551,0.827407
1749,129,3.29297,-0.0134357,0.268662,0.824259
1758,120,3.29357,-0.0150158,0.26661,0.821673
1767,111,3.29216,-0.0141332,0.266798,0.818223
1776,102,3.29443,-0.0130118,0.264074,0.814795
1785,93,3.2938,-0.0120146,0.263817,0.811609
1794,84,3.29377,-0.00825891,0.262679,0.808829
1803,75,3.29372,-0.0107569,0.261113,0.805708
1812,66,3.29269,-0.0116241,0.261307,0.802616
1821,57,3.29176,-0.009881,0.261072,0.799767
1830,48,3.29312,-0.0111332,0.258591,0.796317
1839,39,3.29354,-0.0139764,0.257662,0.792794
1848,30,3.29203,-0.0169885,0.258313,0.789746
1857,21,3.29311,-0.0097788,0.25583,0.786655
1866,12,3.29198,-0.0126103,0.254695,0.78319
1875,3,3.29394,-0.0140035,0.252901,0.779545