Folder: MyBatteryML/hust_correlation_analysis/matrices (part 7)

File: HUST_2-6_cycle_feature_matrix.csv
cycle_number,rul,voltage,current,capacity,charge_capacity
1,1574,3.32588,0.026388,0.265684,1.02413
9,1566,3.30964,-0.0234726,0.28348,0.998379
17,1558,3.31293,-0.023547,0.28122,1.00759
25,1550,3.31518,-0.0225295,0.27924,1.0119
33,1542,3.31712,-0.0210308,0.277129,1.01377
41,1534,3.31861,-0.0202356,0.275457,1.01504
49,1526,3.31878,-0.0202445,0.275028,1.0152
57,1518,3.31841,-0.0223885,0.275021,1.01539
65,1510,3.31885,-0.0220604,0.274199,1.01476
73,1502,3.32081,-0.0210726,0.272788,1.01485
81,1494,3.32043,-0.0220268,0.272795,1.01416
89,1486,3.31993,-0.0214916,0.272798,1.01318
97,1478,3.32138,-0.0212213,0.271793,1.01244
105,1470,3.32106,-0.0218652,0.2718,1.01215
113,1462,3.32011,-0.0215435,0.272208,1.01083
121,1454,3.32158,-0.0206538,0.271205,1.01039
129,1446,3.32108,-0.0220585,0.271613,1.00948
137,1438,3.3207,-0.0216067,0.271625,1.00848
145,1430,3.32006,-0.0223179,0.27202,1.00648
153,1422,3.32139,-0.0214478,0.27143,1.00721
161,1414,3.32036,-0.0211948,0.271866,1.00594
169,1406,3.31968,-0.0225567,0.272277,1.00504
177,1398,3.32125,-0.0198457,0.27087,1.00449
185,1390,3.32043,-0.0212706,0.2717,1.00337
193,1382,3.31952,-0.0219742,0.272113,1.0028
201,1374,3.32052,-0.0194294,0.271112,1.00191
209,1366,3.3198,-0.0207474,0.271622,1.00103
217,1358,3.31902,-0.0214914,0.271934,1.00042
225,1350,3.31846,-0.0221829,0.272346,0.999862
233,1342,3.31976,-0.0202313,0.271346,0.998675
241,1334,3.31933,-0.0209064,0.271351,0.998376
249,1326,3.31865,-0.0214724,0.271728,0.997814
257,1318,3.31813,-0.0239172,0.272128,0.997527
265,1310,3.31701,-0.0241345,0.27294,0.996845
273,1302,3.31861,-0.0220528,0.271535,0.996009
281,1294,3.31761,-0.0227854,0.271947,0.995402
289,1286,3.31686,-0.0242393,0.27238,0.994522
297,1278,3.31871,-0.0213953,0.270956,0.99401
305,1270,3.31792,-0.0228851,0.271368,0.993038
313,1262,3.31711,-0.0237205,0.271792,0.992233
321,1254,3.31684,-0.0243512,0.272076,0.992184
329,1246,3.3181,-0.0216555,0.270788,0.991288
337,1238,3.31738,-0.0224089,0.271204,0.990667
345,1230,3.31682,-0.0238101,0.271648,0.989846
353,1222,3.31653,-0.024433,0.271645,0.989558
361,1214,3.31644,-0.0250318,0.271637,0.989242
369,1206,3.31818,-0.0224298,0.27064,0.988374
377,1198,3.31718,-0.0220622,0.271073,0.987073
385,1190,3.31644,-0.0246016,0.271491,0.986883
393,1182,3.31771,-0.0219032,0.270476,0.986004
401,1174,3.31751,-0.0216053,0.270504,0.985001
409,1166,3.31714,-0.0221726,0.270498,0.984707
417,1158,3.31564,-0.0229272,0.271346,0.983831
425,1150,3.31726,-0.0209646,0.270351,0.982692
433,1142,3.31663,-0.0216613,0.270791,0.98216
441,1134,3.31569,-0.0224433,0.271202,0.981482
449,1126,3.31624,-0.0231314,0.271046,0.981449
457,1118,3.31709,-0.0211511,0.270658,0.979831
465,1110,3.31662,-0.0218013,0.270655,0.97952
473,1102,3.31552,-0.0225602,0.271075,0.978889
481,1094,3.31494,-0.0241345,0.271534,0.977997
489,1086,3.31596,-0.0212653,0.270493,0.977112
497,1078,3.31502,-0.0221195,0.270916,0.976419
505,1070,3.31454,-0.0227733,0.270912,0.976111
513,1062,3.31409,-0.0242386,0.271357,0.975234
521,1054,3.31601,-0.0213187,0.269886,0.974618
529,1046,3.31526,-0.0221108,0.270318,0.973993
537,1038,3.31432,-0.023669,0.270776,0.973119
545,1030,3.31321,-0.0243277,0.271213,0.972558
553,1022,3.31503,-0.0214558,0.269737,0.97192
561,1014,3.31428,-0.0229743,0.27046,0.969713
569,1006,3.31393,-0.0237646,0.270654,0.97051
577,998,3.31514,-0.0216504,0.269702,0.969243
585,990,3.31438,-0.0223433,0.269587,0.968866
593,982,3.31291,-0.0239682,0.270508,0.967764
601,974,3.31479,-0.0210629,0.269034,0.967168
609,966,3.31451,-0.0225621,0.269463,0.966179
617,958,3.31317,-0.0233884,0.269921,0.965614
625,950,3.312,-0.0249381,0.270856,0.964544
633,942,3.31388,-0.0220018,0.269375,0.963941
641,934,3.31321,-0.0234092,0.269821,0.963057
649,926,3.31228,-0.0243067,0.270286,0.962477
657,918,3.31334,-0.0220914,0.269259,0.961298
665,910,3.3127,-0.0235797,0.269713,0.960426
673,902,3.31207,-0.0243949,0.270162,0.959791
681,894,3.31298,-0.0222457,0.269128,0.958579
689,886,3.31232,-0.0229912,0.269724,0.958245
697,878,3.31182,-0.0245515,0.269576,0.957308
705,870,3.31278,-0.0224157,0.268538,0.956076
713,862,3.31165,-0.023201,0.268992,0.955475
721,854,3.31155,-0.0246448,0.26899,0.954847
729,846,3.31291,-0.0224095,0.267943,0.953619
737,838,3.31106,-0.0239402,0.268862,0.952466
745,830,3.31077,-0.0248924,0.268961,0.952088
753,822,3.31205,-0.0226742,0.267826,0.95086
761,814,3.31117,-0.0241531,0.268288,0.94998
769,806,3.30958,-0.0258087,0.269223,0.948817
777,798,3.31184,-0.023431,0.267726,0.947963
785,790,3.31093,-0.0243254,0.268177,0.947288
793,782,3.30981,-0.0258278,0.268707,0.946589
801,774,3.31039,-0.0238376,0.267574,0.944976
809,766,3.31021,-0.0252395,0.267587,0.944438
817,758,3.31166,-0.0228459,0.266533,0.94325
825,750,3.31041,-0.0246478,0.266989,0.942207
833,742,3.30902,-0.0254438,0.267558,0.94165
841,734,3.31091,-0.0239714,0.266422,0.940123
849,726,3.30983,-0.0255654,0.26689,0.93918
857,718,3.31106,-0.0224731,0.265353,0.938512
865,710,3.3095,-0.0243705,0.266308,0.93722
873,702,3.30918,-0.0256651,0.266285,0.936642
881,694,3.31042,-0.0234184,0.26521,0.935339
889,686,3.30872,-0.0258625,0.26619,0.933909
897,678,3.31002,-0.0235519,0.265128,0.932667
905,670,3.30876,-0.0252613,0.265589,0.931663
913,662,3.30787,-0.0269399,0.266064,0.930691
921,654,3.3094,-0.0253276,0.265029,0.929248
929,646,3.30731,-0.0270989,0.26599,0.92801
937,638,3.30948,-0.0246653,0.264439,0.927051
945,630,3.30772,-0.0264576,0.265399,0.925779
953,622,3.30916,-0.0239791,0.263863,0.924901
961,614,3.30761,-0.0265205,0.264831,0.92334
969,606,3.30856,-0.0242379,0.263755,0.922049
977,598,3.30774,-0.0257576,0.264241,0.921156
985,590,3.30854,-0.0235581,0.263173,0.919852
993,582,3.3073,-0.0260218,0.26366,0.918599
1001,574,3.30608,-0.0276951,0.264136,0.917625
1009,566,3.30674,-0.0262761,0.263553,0.915707
1017,558,3.30737,-0.0239963,0.262481,0.914416
1025,550,3.30632,-0.0263917,0.262979,0.913214
1033,542,3.30763,-0.0240642,0.261886,0.911878
1041,534,3.30618,-0.0265303,0.262377,0.910617
1049,526,3.30644,-0.0249858,0.261904,0.908838
1057,518,3.30535,-0.0275105,0.262309,0.907537
1065,510,3.30665,-0.0250465,0.261215,0.906238
1073,502,3.3043,-0.0278023,0.262207,0.904603
1081,494,3.30478,-0.0263115,0.261636,0.902712
1089,486,3.30555,-0.0246531,0.260551,0.901137
1097,478,3.30453,-0.0273395,0.261048,0.899796
1105,470,3.30531,-0.0265334,0.260456,0.897563
1113,462,3.3024,-0.0293039,0.261469,0.89593
1121,454,3.30347,-0.027814,0.260382,0.894272
1129,446,3.30469,-0.0259638,0.259293,0.892774
1137,438,3.30278,-0.0295669,0.260597,0.890846
1145,430,3.30272,-0.0279762,0.259751,0.888978
1153,422,3.3027,-0.0271976,0.259171,0.886759
1161,414,3.30344,-0.0255787,0.258049,0.885037
1169,406,3.30116,-0.0292593,0.259084,0.883065
1177,398,3.30246,-0.028475,0.25802,0.881096
1185,390,3.30231,-0.0278264,0.257934,0.878571
1193,382,3.30246,-0.0278966,0.257337,0.875944
1201,374,3.3023,-0.0249572,0.256204,0.8735
1209,366,3.30259,-0.0241341,0.25507,0.871469
1217,358,3.29905,-0.0357955,0.256133,0.868837
1225,350,3.29896,-0.0325999,0.255004,0.866542
1233,342,3.29917,-0.0279997,0.253334,0.863852
1241,334,3.29934,-0.035091,0.252188,0.861162
1249,326,3.29963,-0.0296737,0.250526,0.858783
1257,318,3.29949,-0.0298114,0.249942,0.856243
1265,310,3.29913,-0.0369232,0.248791,0.85358
1273,302,3.29873,-0.0324431,0.247634,0.850528
1281,294,3.29943,-0.027703,0.245951,0.847868
1289,286,3.29934,-0.0350107,0.244814,0.845224
1297,278,3.29969,-0.0289712,0.24314,0.841866
1305,270,3.29919,-0.0336457,0.24145,0.83923
1313,262,3.29845,-0.032504,0.24081,0.835884
1321,254,3.30103,-0.0253892,0.237955,0.832881
1329,246,3.3005,-0.0327725,0.236788,0.830251
1337,238,3.30053,-0.0265245,0.23509,0.826893
1345,230,3.29979,-0.0364914,0.234435,0.824269
1353,222,3.29862,-0.0343018,0.233984,0.821282
1361,214,3.29948,-0.0278605,0.23135,0.81826
1369,206,3.29862,-0.0355485,0.230879,0.815285
1377,198,3.29846,-0.0341582,0.229684,0.812294
1385,190,3.29847,-0.0391552,0.227963,0.809653
1393,182,3.29806,-0.0351665,0.226761,0.806363
1401,174,3.29713,-0.033143,0.226072,0.803285
1409,166,3.29729,-0.0391093,0.224358,0.800418
1417,158,3.30009,-0.0316741,0.221411,0.797381
1425,150,3.29962,-0.0268399,0.219718,0.794287
1433,142,3.29909,-0.0331275,0.218955,0.790959
1441,134,3.29857,-0.0333429,0.218238,0.788324
1449,126,3.29896,-0.0281804,0.216677,0.785667
1457,118,3.29843,-0.0346136,0.215498,0.782342
1465,110,3.2989,-0.0294295,0.213497,0.779655
1473,102,3.2979,-0.0387733,0.212755,0.776265
1481,94,3.29817,-0.0334044,0.210993,0.773642
1489,86,3.29826,-0.037066,0.208716,0.770579
1497,78,3.29812,-0.0344885,0.207453,0.767952
1505,70,3.29724,-0.0332032,0.206684,0.764589
1513,62,3.29933,-0.0336291,0.203632,0.76112
1521,54,3.29946,-0.032026,0.202947,0.758167
1529,46,3.29975,-0.0359133,0.200577,0.754849
1537,38,3.29933,-0.0333504,0.199286,0.752193
1545,30,3.297879,-0.0428869,0.198469,0.748838
1553,22,3.2978,-0.0374708,0.196669,0.746141
1561,14,3.2985,-0.04408,0.194851,0.743126
1569,6,3.30057,-0.0373549,0.192232,0.739411
1572,3,3.29872,-0.0397151,0.192741,0.73845

File: HUST_2-7_cycle_feature_matrix.csv
cycle_number,rul,voltage,current,capacity,charge_capacity
1,2204,3.32808,0.02704,0.262263,1.02424
12,2193,3.3139,-0.0170398,0.277712,1.00543
23,2182,3.316975,-0.0166894,0.274973,1.01265
34,2171,3.31692,-0.0184194,0.273895,1.01515
45,2160,3.31794,-0.0184491,0.272644,1.01585
56,2149,3.32015,-0.0157716,0.270796,1.01549
67,2138,3.32122,-0.0169606,0.269971,1.01537
78,2127,3.3202,-0.0192544,0.270356,1.01525
89,2116,3.32226,-0.016266,0.268545,1.01388
100,2105,3.32124,-0.0186208,0.269323,1.01345
111,2094,3.32269,-0.0157558,0.267925,1.01179
122,2083,3.32126,-0.0187165,0.269282,1.01111
133,2072,3.3205,-0.0184688,0.268729,1.01
144,2061,3.32134,-0.0165492,0.267695,1.0088
155,2050,3.32037,-0.0178727,0.268506,1.00768
166,2039,3.32179,-0.0159706,0.267503,1.00654
177,2028,3.32117,-0.017389,0.267913,1.00566
188,2017,3.31974,-0.0186992,0.269153,1.00433
199,2006,3.32093,-0.0161215,0.268123,1.00343
210,1995,3.32013,-0.0175212,0.268532,1.00252
221,1984,3.3193,-0.0189597,0.268941,1.00158
232,1973,3.32033,-0.0163511,0.26817,1.00069
243,1962,3.31952,-0.0176254,0.268328,0.999877
254,1951,3.31853,-0.0183571,0.268714,0.999177
265,1940,3.31771,-0.0207579,0.269513,0.998706
276,1929,3.31887,-0.0181165,0.268471,0.997791
287,1918,3.31832,-0.0194837,0.26888,0.996876
298,1907,3.31792,-0.0208333,0.268901,0.996342
309,1896,3.31941,-0.0181428,0.267849,0.995409
320,1885,3.31871,-0.0194817,0.268288,0.99461
331,1874,3.31761,-0.0209573,0.269123,0.993407
342,1863,3.31926,-0.018136,0.267656,0.992808
353,1852,3.31901,-0.018836,0.267665,0.992314
364,1841,3.31817,-0.0203307,0.268082,0.99159
375,1830,3.3194,-0.016601,0.267073,0.990009
386,1819,3.318,-0.0190269,0.267899,0.989595
397,1808,3.31746,-0.0198261,0.267903,0.98924
408,1797,3.31671,-0.019558,0.268357,0.98794
419,1786,3.3178,-0.0166747,0.267302,0.98709
430,1775,3.31739,-0.0176432,0.267751,0.986486
441,1764,3.31666,-0.0188475,0.268162,0.985619
452,1753,3.31556,-0.0197319,0.268599,0.984988
463,1742,3.3172,-0.0171093,0.267577,0.984136
474,1731,3.31669,-0.0183058,0.267999,0.983313
485,1720,3.31621,-0.0192238,0.268443,0.982699
496,1709,3.31507,-0.0199442,0.268861,0.982057
507,1698,3.31713,-0.0170661,0.266928,0.981666
518,1687,3.31574,-0.0178017,0.267803,0.980861
529,1676,3.31581,-0.0192284,0.267789,0.980183
540,1665,3.31498,-0.0199674,0.268235,0.979638
551,1654,3.31613,-0.017227,0.26718,0.978707
562,1643,3.31503,-0.0178589,0.267607,0.978135
573,1632,3.31496,-0.0194836,0.268071,0.977278
584,1621,3.31432,-0.0199645,0.268629,0.976954
595,1610,3.3154,-0.0173921,0.267009,0.97602
606,1599,3.31546,-0.0178999,0.267008,0.975815
617,1588,3.31512,-0.0194501,0.267438,0.974833
628,1577,3.31407,-0.0202956,0.267914,0.97435
639,1566,3.31522,-0.0174264,0.267302,0.973198
650,1555,3.31477,-0.0190555,0.267749,0.972258
661,1544,3.31404,-0.0194389,0.268349,0.972141
672,1533,3.31518,-0.0167428,0.266703,0.971175
683,1522,3.31461,-0.0183627,0.267145,0.970208
694,1511,3.31402,-0.0189599,0.267137,0.969928
705,1500,3.31373,-0.0197095,0.267128,0.969583
716,1489,3.3133,-0.020513,0.267677,0.968993
727,1478,3.31433,-0.0183267,0.266508,0.967753
738,1467,3.3133,-0.0191012,0.266955,0.967164
749,1456,3.3133,-0.0199167,0.267275,0.966847
760,1445,3.31434,-0.0177135,0.26634,0.965373
771,1434,3.31411,-0.0185561,0.266358,0.965074
782,1423,3.31297,-0.0193377,0.266278,0.964474
793,1412,3.31257,-0.0207555,0.266785,0.963823
804,1401,3.31422,-0.017947,0.265721,0.962818
815,1390,3.31315,-0.0193457,0.266168,0.962004
826,1379,3.31232,-0.0202291,0.266627,0.961384
837,1368,3.31453,-0.0180144,0.265208,0.960473
848,1357,3.31333,-0.0186979,0.26555,0.959871
859,1346,3.31266,-0.0195543,0.265996,0.959212
870,1335,3.31173,-0.0203005,0.265982,0.958869
881,1324,3.3133,-0.0180402,0.264908,0.957669
892,1313,3.31301,-0.0196048,0.264874,0.956812
903,1302,3.31215,-0.0202854,0.26536,0.956456
914,1291,3.31371,-0.0181567,0.264301,0.955248
925,1280,3.31353,-0.0189017,0.264303,0.954956
936,1269,3.31121,-0.0206432,0.265666,0.953372
947,1258,3.31342,-0.0176338,0.264144,0.9528
958,1247,3.31209,-0.019048,0.2646,0.951936
969,1236,3.31156,-0.0206453,0.265057,0.950992
980,1225,3.31072,-0.0214312,0.265063,0.950692
991,1214,3.31152,-0.0192861,0.264437,0.949117
1002,1203,3.31159,-0.0198898,0.263951,0.949079
1013,1192,3.31055,-0.0216008,0.264901,0.947914
1024,1181,3.31215,-0.0193207,0.263341,0.946917
1035,1170,3.31072,-0.0210009,0.264287,0.945752
1046,1159,3.31,-0.0216784,0.264281,0.945452
1057,1148,3.31159,-0.0194745,0.263185,0.944149
1068,1137,3.31068,-0.02099,0.263659,0.943298
1079,1126,3.30933,-0.022088,0.264123,0.94256
1090,1115,3.31075,-0.0195717,0.263023,0.941386
1101,1104,3.30981,-0.0212385,0.263489,0.940431
1112,1093,3.31147,-0.0190134,0.262414,0.939216
1123,1082,3.3109,-0.0204002,0.262694,0.937195
1134,1071,3.30945,-0.0220402,0.262788,0.937511
1145,1060,3.31067,-0.0190256,0.261787,0.936762
1156,1049,3.31006,-0.0207505,0.262277,0.93586
1167,1038,3.31086,-0.0192316,0.261652,0.934005
1178,1027,3.310014,-0.019981,0.261632,0.933632
1189,1016,3.30894,-0.0215922,0.262103,0.932702
1200,1005,3.31037,-0.0192245,0.260995,0.931438
1211,994,3.30903,-0.0210346,0.261462,0.930397
1222,983,3.30781,-0.0226397,0.262267,0.929548
1233,972,3.30949,-0.0202831,0.260842,0.928268
1244,961,3.30815,-0.0219689,0.261318,0.927555
1255,950,3.31013,-0.0195035,0.259747,0.926428
1266,939,3.30841,-0.0212121,0.260701,0.92516
1277,928,3.30918,-0.0197201,0.260075,0.923266
1288,917,3.30854,-0.0213491,0.260688,0.922657
1299,906,3.30716,-0.022857,0.260653,0.92179
1310,895,3.30847,-0.0204989,0.259454,0.920512
1321,884,3.30691,-0.0231597,0.260437,0.918952
1332,873,3.30849,-0.0206861,0.25883,0.917969
1343,862,3.30643,-0.0224445,0.259806,0.916725
1354,851,3.3084,-0.0209174,0.258701,0.915162
1365,840,3.30686,-0.0225305,0.259185,0.913008
1376,829,3.30793,-0.0200488,0.258066,0.912984
1387,818,3.30628,-0.0226775,0.259058,0.911418
1398,807,3.30738,-0.021121,0.25793,0.911098
1409,796,3.30575,-0.0229272,0.258424,0.908804
1420,785,3.30717,-0.0212785,0.25729,0.907189
1431,774,3.30577,-0.0229496,0.257775,0.906059
1442,763,3.30625,-0.0214028,0.257757,0.904298
1453,752,3.30461,-0.0241512,0.258163,0.902738
1464,741,3.30608,-0.0216252,0.256583,0.901663
1475,730,3.30458,-0.0241245,0.256985,0.900373
1486,719,3.30536,-0.0227066,0.256365,0.898434
1497,708,3.30658,-0.0207755,0.255209,0.896854
1508,697,3.30418,-0.0236233,0.256216,0.895181
1519,686,3.30509,-0.0219583,0.255084,0.893582
1530,675,3.30366,-0.0246101,0.255586,0.892298
1541,664,3.30404,-0.0230002,0.255219,0.890347
1552,653,3.30472,-0.0223421,0.254328,0.88808
1563,642,3.30224,-0.0253006,0.255366,0.886422
1574,631,3.30346,-0.023489,0.254212,0.884817
1585,620,3.30408,-0.0227476,0.253583,0.882549
1596,609,3.30215,-0.0255192,0.254106,0.881264
1607,598,3.30252,-0.0237699,0.253468,0.879322
1618,587,3.30271,-0.0229865,0.252831,0.877027
1629,576,3.30303,-0.0291026,0.251671,0.874736
1640,565,3.3014,-0.0294887,0.251656,0.873395
1651,554,3.30251,-0.0240028,0.249956,0.871028
1662,543,3.30242,-0.0309829,0.248793,0.868479
1673,532,3.30344,-0.0269649,0.247064,0.866647
1684,521,3.30117,-0.0260822,0.247048,0.864582
1695,510,3.3018,-0.0323065,0.245877,0.862303
1706,499,3.30181,-0.0314752,0.24527,0.859982
1717,488,3.30264,-0.0283452,0.24348,0.858147
1728,477,3.3036,-0.0201778,0.241254,0.855578
1739,466,3.30098,-0.0241556,0.242303,0.853663
1750,455,3.30101,-0.0303762,0.241095,0.851315
1761,444,3.30182,-0.0326444,0.238856,0.848656
1772,433,3.30185,-0.0319281,0.238169,0.846345
1783,422,3.30229,-0.0262467,0.236437,0.843951
1794,411,3.3026,-0.023077,0.23522,0.841564
1805,400,3.30232,-0.0304258,0.233986,0.838865
1816,389,3.30248,-0.02722,0.233032,0.836554
1827,378,3.30009,-0.0271048,0.232776,0.834267
1838,367,3.30048,-0.0320078,0.231033,0.831588
1849,356,3.3011,-0.0263911,0.229303,0.829178
1860,345,3.30095,-0.0337955,0.228063,0.82654
1871,334,3.30155,-0.0288326,0.226319,0.823879
1882,323,3.30167,-0.0337926,0.224574,0.82121
1893,312,3.30139,-0.0289661,0.22333,0.818183
1904,301,3.30117,-0.0283425,0.222588,0.815835
1915,290,3.30153,-0.0259111,0.22133,0.813179
1926,279,3.30151,-0.0309385,0.219549,0.810439
1937,268,3.30184,-0.0334359,0.217293,0.80773
1948,257,3.30246,-0.0258342,0.215624,0.804955
1959,246,3.30241,-0.0233878,0.213749,0.80226
1970,235,3.30256,-0.0311363,0.212487,0.799658
1981,224,3.30255,-0.0235495,0.210711,0.796533
1992,213,3.30208,-0.0313429,0.20942,0.793842
2003,202,3.30209,-0.0315478,0.208622,0.791273
2014,191,3.3024,-0.0250242,0.206845,0.787833
2025,180,3.3022,-0.0301055,0.20506,0.785162
2036,169,3.30261,-0.0249509,0.203276,0.782448
2047,158,3.30204,-0.0356696,0.202462,0.779893
2058,147,3.30195,-0.0317821,0.201145,0.776466
2069,136,3.30177,-0.0292497,0.199812,0.773776
2080,125,3.30398,-0.0306071,0.196692,0.77003
2091,114,3.30564,-0.0223998,0.193982,0.766347
2102,103,3.30524,-0.030497,0.192611,0.765005
2113,92,3.30578,-0.0261536,0.190802,0.762022
2124,81,3.3056,-0.029965,0.188531,0.758899
2135,70,3.30549,-0.0362317,0.186716,0.75592
2146,59,3.30472,-0.0323404,0.185359,0.752484
2157,48,3.30873,-0.0333093,0.181501,0.749488
2168,37,3.30853,-0.0275942,0.180043,0.745714
2179,26,3.30776,-0.0370422,0.178107,0.742752
2190,15,3.31177,-0.0228988,0.173616,0.738885
2201,4,3.31257,-0.0275753,0.171156,0.73587
2202,3,3.31216,-0.0276714,0.17096,0.735856