Folder: MyBatteryML/hust_correlation_analysis/matrices (part 10)

File: HUST_3-4_cycle_feature_matrix.csv
cycle_number,rul,voltage,current,capacity,charge_capacity
1,1768,3.32825,-0.0208579,0.271025,0.98631
9,1760,3.31669,-0.0206684,0.273855,0.979088
17,1752,3.31646,-0.0236372,0.27384,0.977893
25,1744,3.31793,-0.0214723,0.272285,0.976973
33,1736,3.3177,-0.0236473,0.272279,0.976107
41,1728,3.31665,-0.024322,0.272253,0.975756
49,1720,3.31854,-0.0221838,0.270691,0.974776
57,1712,3.31853,-0.0236196,0.270677,0.97417
65,1704,3.31777,-0.024247,0.270671,0.9739
73,1696,3.31952,-0.0222994,0.269573,0.972594
81,1688,3.31898,-0.0229142,0.269559,0.972322
89,1680,3.31891,-0.0242991,0.269539,0.971728
97,1672,3.3203,-0.0215784,0.267711,0.971102
105,1664,3.31979,-0.02275,0.268469,0.970329
113,1656,3.31954,-0.0237073,0.268452,0.969904
121,1648,3.31915,-0.0246194,0.268483,0.969635
129,1640,3.32104,-0.021554,0.267499,0.969026
137,1632,3.31998,-0.0223398,0.267369,0.968405
145,1624,3.31968,-0.0231542,0.267371,0.968082
153,1616,3.31969,-0.0238542,0.267378,0.96784
161,1608,3.31848,-0.0246508,0.267829,0.967218
169,1600,3.32095,-0.021744,0.266263,0.96654
177,1592,3.32078,-0.0224671,0.266271,0.96628
185,1584,3.31945,-0.0240195,0.267202,0.965145
193,1576,3.31945,-0.0239699,0.267312,0.965386
201,1568,3.318495,-0.0249533,0.267195,0.964755
209,1560,3.32065,-0.0218774,0.265643,0.964206
217,1552,3.32013,-0.022647,0.266103,0.96362
225,1544,3.31994,-0.0234916,0.266102,0.963281
233,1536,3.31973,-0.0241301,0.266097,0.963008
241,1528,3.31906,-0.0248434,0.266549,0.96243
249,1520,3.31821,-0.025025,0.266552,0.962363
257,1512,3.32074,-0.0220331,0.264988,0.961735
265,1504,3.32034,-0.0226958,0.264988,0.961473
273,1496,3.31973,-0.0235341,0.26545,0.96087
281,1488,3.31966,-0.0243255,0.26544,0.960515
289,1480,3.3193,-0.0241914,0.2654,0.960448
297,1472,3.31836,-0.0269531,0.266648,0.959982
305,1464,3.31966,-0.0241536,0.265203,0.958776
313,1456,3.31968,-0.0248193,0.265202,0.958937
321,1448,3.31936,-0.0255251,0.265193,0.95839
329,1440,3.31917,-0.0263476,0.265211,0.958129
337,1432,3.319,-0.025001,0.264747,0.957726
345,1424,3.32049,-0.0240664,0.264092,0.956898
353,1416,3.32083,-0.024045,0.263626,0.957176
361,1408,3.32039,-0.0238031,0.263653,0.956133
369,1400,3.31985,-0.0236508,0.263639,0.956162
377,1392,3.31874,-0.0264381,0.264554,0.955676
385,1384,3.31831,-0.0272061,0.264561,0.955394
393,1376,3.3205,-0.0222615,0.262533,0.954615
401,1368,3.32038,-0.0230306,0.262524,0.954291
409,1360,3.31969,-0.0238457,0.262976,0.953666
417,1352,3.31943,-0.0246224,0.262996,0.953406
425,1344,3.31911,-0.0253212,0.263002,0.953164
433,1336,3.32073,-0.0223786,0.261781,0.952412
441,1328,3.32065,-0.0231459,0.261865,0.951845
449,1320,3.3204,-0.0240137,0.261891,0.951576
457,1312,3.3201,-0.0240599,0.261892,0.951572
465,1304,3.31964,-0.0247482,0.261891,0.951301
473,1296,3.31885,-0.0255441,0.262344,0.950676
481,1288,3.32076,-0.0223995,0.260776,0.95012
489,1280,3.31989,-0.0234215,0.261242,0.94945
497,1272,3.31951,-0.0240584,0.261228,0.949154
505,1264,3.31925,-0.024894,0.261227,0.948814
513,1256,3.31892,-0.0257318,0.261247,0.94857
521,1248,3.32048,-0.0227203,0.260129,0.947649
529,1240,3.32034,-0.0234821,0.260121,0.947314
537,1232,3.32003,-0.0242118,0.260114,0.947012
545,1224,3.31969,-0.0249865,0.260131,0.946782
553,1216,3.31893,-0.0257705,0.260895,0.946106
561,1208,3.32095,-0.0226651,0.258971,0.945428
569,1200,3.32091,-0.0234871,0.258984,0.945144
577,1192,3.31999,-0.0243649,0.259438,0.944495
585,1184,3.3197,-0.0250879,0.259427,0.944179
593,1176,3.31941,-0.0258992,0.259423,0.94385
601,1168,3.3213,-0.0225241,0.257839,0.943346
609,1160,3.32055,-0.0236477,0.258313,0.942665
617,1152,3.32031,-0.0244698,0.258293,0.942306
625,1144,3.3198,-0.025151,0.258617,0.942032
633,1136,3.32165,-0.0229655,0.25718,0.940804
641,1128,3.32129,-0.0236394,0.257182,0.940547
649,1120,3.32098,-0.0244944,0.257163,0.94015
657,1112,3.32002,-0.0253522,0.257621,0.939503
665,1104,3.31961,-0.0262021,0.257641,0.939256
673,1096,3.32146,-0.0229779,0.256042,0.938655
681,1088,3.32063,-0.0239296,0.256496,0.937953
689,1080,3.32058,-0.0254485,0.256492,0.937356
697,1072,3.31925,-0.0263997,0.256981,0.936792
705,1064,3.32129,-0.0230793,0.255379,0.936222
713,1056,3.32062,-0.0247977,0.255842,0.935267
721,1048,3.32004,-0.0253524,0.255843,0.93506
729,1040,3.31946,-0.0263699,0.255848,0.934694
737,1032,3.32116,-0.0240756,0.25471,0.933429
745,1024,3.32065,-0.0248863,0.25471,0.933119
753,1016,3.3197,-0.0259076,0.255172,0.932431
761,1008,3.32116,-0.0234876,0.254367,0.931208
769,1000,3.32072,-0.0241988,0.254023,0.930915
777,992,3.32006,-0.0258571,0.254488,0.929979
785,984,3.31948,-0.0266374,0.254483,0.929673
793,976,3.32108,-0.0244447,0.25334,0.928366
801,968,3.32044,-0.0252395,0.253336,0.928055
809,960,3.31949,-0.0268873,0.253803,0.927126
817,952,3.32133,-0.0235978,0.252174,0.926478
825,944,3.32028,-0.0253474,0.252655,0.925567
833,936,3.31937,-0.0271348,0.253125,0.924605
841,928,3.32122,-0.0236714,0.251495,0.924021
849,920,3.32105,-0.0252242,0.251496,0.923435
857,912,3.3194,-0.0272866,0.252448,0.922111
865,904,3.32119,-0.0238489,0.250821,0.921543
873,896,3.31994,-0.0256452,0.251289,0.920557
881,888,3.31887,-0.0274289,0.251757,0.919579
889,880,3.3209,-0.0239886,0.250104,0.918929
897,872,3.31981,-0.0258696,0.250588,0.917969
905,864,3.31914,-0.0273577,0.250585,0.917643
913,856,3.32063,-0.025038,0.249417,0.916065
921,848,3.31959,-0.0266388,0.249891,0.915181
929,840,3.32116,-0.0243853,0.248737,0.913891
937,832,3.32005,-0.0260683,0.249209,0.912953
945,824,3.31911,-0.0269658,0.249507,0.912605
953,816,3.32068,-0.0243943,0.248021,0.911338
961,808,3.31952,-0.0263442,0.248504,0.910345
969,800,3.31875,-0.0278253,0.248796,0.909527
977,792,3.31976,-0.0255002,0.24779,0.908104
985,784,3.31934,-0.0272639,0.247807,0.907515
993,776,3.32062,-0.0248004,0.246636,0.90625
1001,768,3.3192,-0.0265405,0.247099,0.905257
1009,760,3.31878,-0.02825,0.247088,0.904587
1017,752,3.32021,-0.0257683,0.24592,0.903349
1025,744,3.31862,-0.0283717,0.246897,0.901846
1033,736,3.31976,-0.0260104,0.245704,0.900484
1041,728,3.31843,-0.0279095,0.246183,0.899478
1049,720,3.3205,-0.0253173,0.24451,0.898505
1057,712,3.31906,-0.0270659,0.245,0.897593
1065,704,3.32057,-0.0243843,0.243806,0.896356
1073,696,3.31919,-0.0268596,0.244281,0.895119
1081,688,3.31789,-0.0288675,0.244769,0.894089
1089,680,3.31904,-0.026447,0.243566,0.892731
1097,672,3.31782,-0.029022,0.244053,0.891495
1105,664,3.3191,-0.0266191,0.242849,0.890124
1113,656,3.3177,-0.0284045,0.243335,0.88916
1121,648,3.31959,-0.0257921,0.241625,0.888115
1129,640,3.31788,-0.0286107,0.242618,0.886543
1137,632,3.31883,-0.0260691,0.24141,0.885228
1145,624,3.31768,-0.0287884,0.241898,0.883922
1153,616,3.31863,-0.0261865,0.240674,0.882581
1161,608,3.31691,-0.0291168,0.2417,0.881041
1169,600,3.31834,-0.0273406,0.240548,0.879372
1177,592,3.31706,-0.0290289,0.240458,0.878747
1185,584,3.31784,-0.0275851,0.23973,0.876671
1193,576,3.31656,-0.0302467,0.240231,0.875423
1201,568,3.31767,-0.0276456,0.23901,0.874109
1209,560,3.31559,-0.0306842,0.240012,0.872411
1217,552,3.3169,-0.0287478,0.238776,0.870803
1225,544,3.31724,-0.0271729,0.238036,0.868546
1233,536,3.3159,-0.0300697,0.23855,0.867439
1241,528,3.31713,-0.0282842,0.23731,0.865779
1249,520,3.31488,-0.0313293,0.238336,0.864126
1257,512,3.31594,-0.0364529,0.236573,0.862517
1265,504,3.31696,-0.034798,0.235328,0.860813
1273,496,3.31533,-0.0330499,0.235333,0.859132
1281,488,3.3168,-0.0286548,0.233557,0.857468
1289,480,3.31519,-0.0282992,0.233544,0.856408
1297,472,3.31616,-0.0360667,0.232283,0.854751
1305,464,3.31709,-0.0326689,0.231037,0.852525
1313,456,3.31585,-0.0306482,0.230524,0.851202
1321,448,3.31636,-0.0290621,0.229749,0.849084
1329,440,3.31413,-0.039254,0.229738,0.847761
1337,432,3.31582,-0.0348926,0.227955,0.846074
1345,424,3.31737,-0.0304803,0.22618,0.844438
1353,416,3.3155,-0.0285346,0.226237,0.842766
1361,408,3.31628,-0.0364836,0.224882,0.841302
1369,400,3.31702,-0.032384,0.223592,0.838979
1377,392,3.315,-0.033979,0.224094,0.837
1385,384,3.3164,-0.0295621,0.222318,0.835379
1393,376,3.31716,-0.0251907,0.221013,0.833344
1401,368,3.31507,-0.039134,0.221503,0.831719
1409,360,3.31573,-0.0349147,0.2202,0.829639
1417,352,3.31653,-0.0305943,0.218899,0.827618
1425,344,3.31521,-0.0293709,0.218398,0.82604
1433,336,3.31517,-0.0377114,0.217584,0.823998
1441,328,3.31659,-0.0332138,0.215768,0.82231
1449,320,3.31475,-0.0321502,0.21576,0.820328
1457,312,3.31603,-0.0276063,0.213947,0.818661
1465,304,3.31591,-0.037045,0.213117,0.816312
1473,296,3.31418,-0.0375199,0.21311,0.815002
1481,288,3.31555,-0.0314343,0.211288,0.812653
1489,280,3.31627,-0.0269424,0.209953,0.810626
1497,272,3.31388,-0.0414145,0.210445,0.80904
1505,264,3.31469,-0.037118,0.209102,0.806948
1513,256,3.31558,-0.0309844,0.207265,0.804582
1521,248,3.31683,-0.0272257,0.205421,0.802618
1529,240,3.31368,-0.0410199,0.206961,0.800947
1537,232,3.31577,-0.0345573,0.204065,0.799016
1545,224,3.31572,-0.0314292,0.20319,0.79623
1553,216,3.31664,-0.0372305,0.201332,0.794558
1561,208,3.31368,-0.0417159,0.202298,0.792569
1569,200,3.31561,-0.0351478,0.199952,0.790606
1577,192,3.31703,-0.0305845,0.198091,0.788879
1585,184,3.31716,-0.0376256,0.196708,0.786559
1593,176,3.31459,-0.0394349,0.19718,0.784551
1601,168,3.3164,-0.0328159,0.194834,0.782777
1609,160,3.31701,-0.0294659,0.193434,0.780138
1617,152,3.31681,-0.039399,0.192506,0.77646
1625,144,3.31551,-0.0379602,0.192574,0.776238
1633,136,3.3164,-0.0317434,0.190141,0.773818
1641,128,3.31691,-0.0415733,0.188719,0.771849
1649,120,3.31813,-0.0351156,0.18683,0.769467
1657,112,3.3194,-0.0313694,0.184942,0.767465
1665,104,3.31646,-0.0332182,0.185598,0.765503
1673,96,3.31775,-0.0404629,0.183513,0.763517
1681,88,3.31887,-0.0364628,0.18187,0.761528
1689,80,3.32061,-0.0298089,0.179258,0.759525
1697,72,3.32091,-0.0383087,0.177799,0.756818
1705,64,3.3217,-0.0318766,0.1759,0.754414
1713,56,3.32272,-0.040308,0.174003,0.752149
1721,48,3.32376,-0.036384,0.172115,0.750162
1729,40,3.3249,-0.0309876,0.170178,0.74741
1737,32,3.3221,-0.0448524,0.17017,0.745532
1745,24,3.32424,-0.0362778,0.167404,0.743193
1753,16,3.32462,-0.0338261,0.165929,0.740514
1761,8,3.32908,-0.0367029,0.162353,0.737872
1766,3,3.32744,-0.0343767,0.161692,0.736524

File: HUST_3-5_cycle_feature_matrix.csv
cycle_number,rul,voltage,current,capacity,charge_capacity
1,2659,3.32083,-0.00663498,0.34275,1.0631
14,2646,3.31054,-0.00909906,0.348413,1.05424
27,2633,3.31094,-0.00903556,0.34768,1.0521
40,2620,3.30973,-0.010946,0.348099,1.05067
53,2607,3.3106,-0.00990772,0.347377,1.04915
66,2594,3.30933,-0.0117235,0.347811,1.04781
79,2581,3.31083,-0.0104701,0.346654,1.04666
92,2568,3.31166,-0.00942704,0.345954,1.04517
105,2555,3.31122,-0.0104755,0.345943,1.04452
118,2542,3.31034,-0.0116258,0.34641,1.04369
131,2529,3.31133,-0.00993151,0.345685,1.04251
144,2516,3.31072,-0.0110941,0.346165,1.04197
157,2503,3.31162,-0.00944887,0.345376,1.04056
170,2490,3.31102,-0.0105445,0.346027,1.03977
183,2477,3.31068,-0.0111504,0.345936,1.03941
196,2464,3.31202,-0.00887022,0.344765,1.0388
209,2451,3.31134,-0.00997921,0.345227,1.03797
222,2438,3.31122,-0.0105518,0.34518,1.03748
235,2425,3.31068,-0.0123358,0.345619,1.03746
248,2412,3.30986,-0.0134136,0.346068,1.0366
261,2399,3.31145,-0.0100281,0.344461,1.03563
274,2386,3.311,-0.0106737,0.344463,1.03525
287,2373,3.31089,-0.0112764,0.34446,1.03489
300,2360,3.31186,-0.00951653,0.343762,1.03382
313,2347,3.31153,-0.0101754,0.343756,1.03341
326,2334,3.31076,-0.0112797,0.344235,1.03264
339,2321,3.31039,-0.0119461,0.344217,1.03218
352,2308,3.31177,-0.0101606,0.343536,1.03117
365,2295,3.31153,-0.0107194,0.343538,1.03085
378,2282,3.31114,-0.0111778,0.343536,1.03058
391,2269,3.31239,-0.00947382,0.342852,1.02949
404,2256,3.31199,-0.0100686,0.342856,1.02915
417,2243,3.31144,-0.0113097,0.343336,1.0283
430,2230,3.3113,-0.0112923,0.342829,1.02836
443,2217,3.31058,-0.0118758,0.343289,1.02783
456,2204,3.31209,-0.00959837,0.342111,1.02718
469,2191,3.31146,-0.0107976,0.342588,1.02632
482,2178,3.3112,-0.0113548,0.342597,1.02603
495,2165,3.31074,-0.0119568,0.342582,1.02569
508,2152,3.31205,-0.0102217,0.341897,1.02455
521,2139,3.31173,-0.0107244,0.341879,1.02421
534,2126,3.31125,-0.0118516,0.342379,1.02348
547,2113,3.31271,-0.00954517,0.341211,1.02284
560,2100,3.31234,-0.0101348,0.341232,1.02259
573,2087,3.31163,-0.0114097,0.341693,1.02164
586,2074,3.31131,-0.0120112,0.341689,1.02128
599,2061,3.31286,-0.00966746,0.340513,1.02065
612,2048,3.31253,-0.0101743,0.34051,1.02035
625,2035,3.31213,-0.0108277,0.340511,1.01997
638,2022,3.31151,-0.0119961,0.340971,1.01909
651,2009,3.31295,-0.00968269,0.339824,1.01854
664,1996,3.31244,-0.0108326,0.340287,1.01766
677,1983,3.31238,-0.0109526,0.339808,1.0175
690,1970,3.31159,-0.0121115,0.340266,1.01684
703,1957,3.31298,-0.0102891,0.339587,1.01584
716,1944,3.31251,-0.0108251,0.339558,1.01543
729,1931,3.3122,-0.0114661,0.339558,1.01505
742,1918,3.31339,-0.00958602,0.338859,1.014
755,1905,3.31295,-0.0103135,0.338844,1.01353
768,1892,3.31264,-0.0114943,0.338865,1.0129
781,1879,3.31184,-0.0121479,0.339323,1.0123
794,1866,3.31291,-0.0103428,0.338634,1.01123
807,1853,3.31259,-0.0109085,0.338621,1.01086
820,1840,3.31167,-0.0121686,0.339087,1.00994
833,1827,3.3131,-0.00970247,0.337899,1.00933
846,1814,3.31243,-0.010991,0.338383,1.00844
859,1801,3.3121,-0.011716,0.338376,1.00799
872,1788,3.3135,-0.00972193,0.337217,1.00719
885,1775,3.31329,-0.0103599,0.337212,1.00679
898,1762,3.31244,-0.0116424,0.337681,1.00586
911,1749,3.3136,-0.00977279,0.336968,1.00474
924,1736,3.31268,-0.0110924,0.337455,1.00384
937,1723,3.31237,-0.0116512,0.337476,1.00359
950,1710,3.31383,-0.00982908,0.33628,1.00257
963,1697,3.31272,-0.0110758,0.337249,1.00156
976,1684,3.31226,-0.011746,0.337209,1.00129
989,1671,3.31212,-0.012313,0.336736,1.00089
1002,1658,3.31283,-0.0106209,0.336405,0.999447
1015,1645,3.31252,-0.0116936,0.336512,0.998874
1028,1632,3.31409,-0.00922835,0.336041,0.998291
1041,1619,3.31316,-0.0105791,0.335807,0.997318
1054,1606,3.31213,-0.0118624,0.336287,0.99641
1067,1593,3.31332,-0.00995647,0.335696,0.995329
1080,1580,3.31295,-0.011219,0.335603,0.994634
1093,1567,3.31241,-0.0118285,0.335597,0.994275
1106,1554,3.31313,-0.0106454,0.335399,0.992636
1119,1541,3.31265,-0.0112904,0.335389,0.992243
1132,1528,3.31187,-0.0125213,0.335873,0.991375
1145,1515,3.3137,-0.0099832,0.334215,0.990964
1158,1502,3.31288,-0.0112739,0.334682,0.990011
1171,1489,3.31213,-0.012629,0.335139,0.988982
1184,1476,3.31312,-0.0106491,0.334458,0.987977
1197,1463,3.31251,-0.0114583,0.334424,0.98738
1210,1450,3.31182,-0.0127393,0.334905,0.986485
1223,1437,3.31292,-0.010829,0.334189,0.985074
1236,1424,3.3124,-0.0120295,0.334204,0.984655
1249,1411,3.31332,-0.0101507,0.334099,0.983535
1262,1398,3.31262,-0.0113655,0.334002,0.982692
1275,1385,3.31211,-0.0126795,0.334013,0.981956
1288,1372,3.31327,-0.0108021,0.333323,0.980832
1301,1359,3.31221,-0.0120913,0.33382,0.979953
1314,1346,3.31319,-0.0102887,0.333128,0.97877
1327,1333,3.31227,-0.0121666,0.333656,0.977639
1340,1320,3.3118,-0.0127464,0.333584,0.977081
1353,1307,3.31236,-0.0109828,0.333389,0.975731
1366,1294,3.31133,-0.0122615,0.333855,0.974742
1379,1281,3.31238,-0.0109805,0.333198,0.973353
1392,1268,3.31135,-0.0123595,0.33367,0.972329
1405,1255,3.31201,-0.0104309,0.332983,0.971204
1418,1242,3.31111,-0.0117449,0.333467,0.970238
1431,1229,3.31025,-0.0130471,0.333448,0.969439
1444,1216,3.31085,-0.0118233,0.333274,0.967783
1457,1203,3.31196,-0.010466,0.3326,0.966355
1470,1190,3.31065,-0.0118409,0.333089,0.96537
1483,1177,3.31161,-0.00997085,0.332411,0.964209
1496,1164,3.31033,-0.0119056,0.333411,0.962778
1509,1151,3.30929,-0.013235,0.333368,0.961893
1522,1138,3.30984,-0.0120134,0.333198,0.960193
1535,1125,3.31029,-0.0107033,0.333014,0.958477
1548,1112,3.30949,-0.0119505,0.333591,0.957735
1561,1099,3.30997,-0.0107463,0.332834,0.956018
1574,1086,3.30883,-0.0128126,0.33341,0.954664
1587,1073,3.30933,-0.0121232,0.33319,0.952694
1600,1060,3.30794,-0.0134934,0.333674,0.951666
1613,1047,3.30778,-0.0128969,0.334032,0.949425
1626,1034,3.30853,-0.0115535,0.333343,0.947864
1639,1021,3.30722,-0.0137519,0.333856,0.946454
1652,1008,3.30752,-0.0123593,0.334406,0.944722
1665,995,3.30817,-0.0109801,0.33301,0.943218
1678,982,3.30588,-0.0139104,0.334574,0.941063
1691,969,3.30656,-0.0125634,0.333909,0.939366
1704,956,3.30675,-0.0118002,0.333755,0.937489
1717,943,3.30676,-0.0106746,0.333608,0.935617
1730,930,3.30557,-0.0115746,0.333644,0.933904
1743,917,3.3058,-0.0161524,0.332953,0.93172
1756,904,3.30598,-0.0155494,0.332807,0.929558
1769,891,3.30632,-0.0112542,0.331582,0.927206
1782,878,3.30448,-0.012371,0.332196,0.925213
1795,865,3.30457,-0.0170575,0.331454,0.922966
1808,852,3.30484,-0.0145976,0.33079,0.920761
1821,839,3.30524,-0.0104125,0.329664,0.918297
1834,826,3.30549,-0.0156424,0.328913,0.915856
1847,813,3.30552,-0.0132452,0.328218,0.913515
1860,800,3.30604,-0.00951686,0.327046,0.910946
1873,787,3.30358,-0.0192172,0.328096,0.909239
1886,774,3.30377,-0.0171804,0.327446,0.906828
1899,761,3.30409,-0.0146833,0.326767,0.904559
1912,748,3.30427,-0.0105734,0.325553,0.902066
1925,735,3.30415,-0.0159474,0.324884,0.89952
1938,722,3.3045,-0.0116067,0.323657,0.897109
1951,709,3.30476,-0.00978579,0.323594,0.894536
1964,696,3.30412,-0.0154551,0.322871,0.891688
1977,683,3.30433,-0.0128552,0.322214,0.889501
1990,670,3.30224,-0.0147773,0.322744,0.887056
2003,657,3.30205,-0.019656,0.322082,0.884852
2016,644,3.30244,-0.015904,0.320879,0.882148
2029,631,3.30241,-0.0122229,0.320212,0.87923
2042,618,3.30242,-0.0190259,0.320199,0.877304
2055,605,3.30236,-0.0153713,0.318888,0.874361
2068,592,3.30304,-0.0127677,0.317678,0.872291
2081,579,3.3023,-0.0185688,0.317541,0.869419
2094,566,3.30263,-0.0166666,0.316903,0.867128
2107,553,3.30281,-0.0120527,0.315671,0.864513
2120,540,3.30289,-0.0177569,0.315041,0.862042
2133,527,3.3022,-0.0161167,0.314913,0.859064
2146,514,3.30285,-0.0133306,0.313713,0.857117
2159,501,3.30089,-0.0132733,0.314442,0.854629
2172,488,3.29986,-0.0213355,0.314159,0.851861
2185,475,3.30041,-0.0172037,0.312965,0.84931
2198,462,3.30045,-0.0147133,0.312293,0.846938
2211,449,3.30028,-0.0204578,0.312394,0.84451
2224,436,3.3003,-0.0198138,0.311557,0.842323
2237,423,3.30026,-0.0191259,0.31147,0.840219
2250,410,3.3001,-0.0152135,0.310819,0.837309
2263,397,3.30071,-0.0124505,0.309606,0.835247
2276,384,3.3009,-0.0151781,0.307879,0.832174
2289,371,3.30113,-0.0103379,0.306642,0.829795
2302,358,3.30036,-0.0185865,0.307141,0.827127
2315,345,3.29854,-0.0196506,0.30704,0.825277
2328,332,3.29871,-0.017115,0.306443,0.822903
2341,319,3.29881,-0.0208953,0.305245,0.820372
2354,306,3.29882,-0.0163662,0.304043,0.817794
2367,293,3.29944,-0.0135007,0.302807,0.815777
2380,280,3.29938,-0.0127796,0.302723,0.813648
2393,267,3.29964,-0.00994741,0.302079,0.811423
2406,254,3.29688,-0.0201277,0.302646,0.809117
2419,241,3.29701,-0.0173522,0.302001,0.806861
2432,228,3.29741,-0.0132283,0.300812,0.804202
2445,215,3.29683,-0.020773,0.30073,0.802075
2458,202,3.29703,-0.0159189,0.299526,0.799682
2471,189,3.29761,-0.0109579,0.297736,0.797438
2484,176,3.29741,-0.0164955,0.297085,0.795159
2497,163,3.29537,-0.0163813,0.297096,0.792764
2510,150,3.29598,-0.0135386,0.295866,0.790606
2523,137,3.2957,-0.0191045,0.295233,0.788373
2536,124,3.29623,-0.0160682,0.294027,0.786392
2549,111,3.29645,-0.0111463,0.292815,0.783946
2562,98,3.29648,-0.0185773,0.292204,0.782233
2575,85,3.29416,-0.0179015,0.292178,0.779947
2588,72,3.29419,-0.0150579,0.291543,0.777701
2601,59,3.29523,-0.0110512,0.289763,0.776254
2614,46,3.29187,-0.0230904,0.290882,0.774364
2627,33,3.29292,-0.0157659,0.2886,0.772182
2640,20,3.29277,-0.0129565,0.287943,0.769842
2653,7,3.29259,-0.0198896,0.287308,0.76832
2657,3,3.29174,-0.0193616,0.287322,0.767334