Folder: MyBatteryML/hust_correlation_analysis/matrices (part 3)

File: HUST_1-5_cycle_feature_matrix.csv
cycle_number,rul,voltage,current,capacity,charge_capacity
1,1973,3.31761,0.0419836,0.289579,1.04296
10,1964,3.30547,-0.012092,0.308871,1.00979
19,1955,3.30813,-0.0124468,0.30615,1.01842
28,1946,3.31024,-0.0122941,0.304034,1.022
37,1937,3.31219,-0.0105213,0.302254,1.02397
46,1928,3.31329,-0.00919649,0.301033,1.02546
55,1919,3.31361,-0.00988071,0.299867,1.02526
64,1910,3.31364,-0.0104728,0.299533,1.02507
73,1901,3.31349,-0.0111395,0.299138,1.02485
82,1892,3.31578,-0.00914648,0.298225,1.02427
91,1883,3.31536,-0.00980323,0.297531,1.02385
100,1874,3.31537,-0.0108677,0.297539,1.02324
109,1865,3.31624,-0.00916921,0.296731,1.02209
118,1856,3.31562,-0.0104472,0.297133,1.02115
127,1847,3.31527,-0.0109431,0.297131,1.02084
136,1838,3.31603,-0.00924646,0.296719,1.0195
145,1829,3.31596,-0.00984426,0.296732,1.01918
154,1820,3.31487,-0.0111539,0.297526,1.01826
163,1811,3.31602,-0.00928239,0.296813,1.01697
172,1802,3.31537,-0.00990071,0.297129,1.01642
181,1793,3.31478,-0.0110973,0.297534,1.01551
190,1784,3.31394,-0.0117135,0.297935,1.01496
199,1775,3.31526,-0.00994456,0.297124,1.01381
208,1766,3.31445,-0.0105335,0.297533,1.01329
217,1757,3.31385,-0.0118041,0.297939,1.01235
226,1748,3.31478,-0.0093609,0.297118,1.01157
235,1739,3.31389,-0.0100333,0.297787,1.01095
244,1730,3.31315,-0.0107093,0.297913,1.01035
253,1721,3.31264,-0.0118941,0.298328,1.00946
262,1712,3.31425,-0.010068,0.297126,1.00859
271,1703,3.31335,-0.0107919,0.297529,1.00796
280,1694,3.31263,-0.011956,0.297936,1.00688
289,1685,3.314,-0.0101404,0.297141,1.006
298,1676,3.31316,-0.0107899,0.297541,1.00539
307,1667,3.31272,-0.0120336,0.297964,1.00451
316,1658,3.31369,-0.00963672,0.297157,1.00373
325,1649,3.31315,-0.0107294,0.297569,1.00288
334,1640,3.3129,-0.011394,0.297579,1.00253
343,1631,3.31376,-0.00902929,0.296765,1.0017
352,1622,3.31331,-0.0102652,0.297184,1.0008
361,1613,3.31236,-0.0115163,0.298031,0.99975
370,1604,3.31157,-0.0121349,0.298439,0.999185
379,1595,3.31328,-0.00959701,0.297224,0.998663
388,1586,3.31214,-0.010928,0.298072,0.997573
397,1577,3.31168,-0.0115323,0.298049,0.997123
406,1568,3.31287,-0.00975369,0.297691,0.995849
415,1559,3.31219,-0.0103642,0.298112,0.995331
424,1550,3.31165,-0.0109891,0.298106,0.99494
433,1541,3.3113,-0.0121628,0.298535,0.994108
442,1532,3.31203,-0.00979404,0.297707,0.993186
451,1523,3.31123,-0.0104366,0.298132,0.992639
460,1514,3.31056,-0.0117036,0.298555,0.991702
469,1505,3.30974,-0.0124762,0.298976,0.991058
478,1496,3.31153,-0.00987008,0.297754,0.990563
487,1487,3.31073,-0.0110909,0.298175,0.989673
496,1478,3.30993,-0.0118519,0.298604,0.989055
505,1469,3.31148,-0.0098649,0.297819,0.988044
514,1460,3.31033,-0.0106156,0.298228,0.987364
523,1451,3.3102,-0.0117399,0.298143,0.986697
532,1442,3.30961,-0.0124403,0.298672,0.986186
541,1433,3.31059,-0.00993957,0.297844,0.985329
550,1424,3.3097,-0.0113131,0.298731,0.984244
559,1415,3.30955,-0.0124513,0.298732,0.983602
568,1406,3.31053,-0.00995603,0.297921,0.982776
577,1397,3.30961,-0.0106524,0.298366,0.982234
586,1388,3.30933,-0.011951,0.298803,0.981336
595,1379,3.3105,-0.0093324,0.297554,0.980746
604,1370,3.30997,-0.0106351,0.29799,0.979828
613,1361,3.30911,-0.0117032,0.298426,0.979279
622,1352,3.30833,-0.0126949,0.298864,0.978298
631,1343,3.30983,-0.0100601,0.297617,0.977733
640,1334,3.30907,-0.0114128,0.297972,0.97699
649,1325,3.30818,-0.0120339,0.298235,0.97623
658,1316,3.30954,-0.010075,0.297691,0.975132
667,1307,3.30913,-0.0107628,0.297687,0.974732
676,1298,3.30801,-0.0121931,0.298576,0.973576
685,1289,3.30938,-0.0101947,0.297776,0.972505
694,1280,3.3087,-0.0108565,0.297771,0.972106
703,1271,3.30774,-0.0121941,0.298204,0.971154
712,1262,3.3094,-0.0095382,0.296957,0.970588
721,1253,3.3085,-0.0108969,0.297396,0.969631
730,1244,3.30799,-0.0122728,0.297847,0.968688
739,1235,3.30921,-0.0102332,0.297044,0.967603
748,1226,3.30813,-0.0109744,0.297602,0.966976
757,1217,3.30717,-0.0123695,0.297931,0.966043
766,1208,3.30837,-0.0103959,0.297124,0.964891
775,1199,3.30769,-0.0110522,0.29711,0.964479
784,1190,3.30719,-0.0124036,0.297579,0.963627
793,1181,3.3082,-0.0103902,0.29677,0.962476
802,1172,3.30722,-0.010062,0.296762,0.961375
811,1163,3.30888,-0.0136768,0.295514,0.959792
820,1154,3.30771,-0.0144906,0.295961,0.959141
829,1145,3.3066,-0.0175632,0.296859,0.95836
838,1136,3.30784,-0.0138659,0.295603,0.957069
847,1127,3.30731,-0.0117716,0.295038,0.955864
856,1118,3.3062,-0.0131882,0.295592,0.954874
865,1109,3.30731,-0.0129208,0.295246,0.953881
874,1100,3.30626,-0.0176164,0.29478,0.952644
883,1091,3.30719,-0.0156192,0.29397,0.951469
892,1082,3.30638,-0.0171201,0.29443,0.950525
901,1073,3.30545,-0.016749,0.294431,0.949455
910,1064,3.3072,-0.0128852,0.292707,0.948383
919,1055,3.30629,-0.0132394,0.293168,0.946776
928,1046,3.30736,-0.00947337,0.292142,0.945459
937,1037,3.30602,-0.0125933,0.292783,0.944389
946,1028,3.30728,-0.015748,0.291544,0.943367
955,1019,3.30637,-0.0154224,0.29154,0.942257
964,1010,3.3052,-0.0168503,0.291988,0.941291
973,1001,3.30625,-0.014856,0.291174,0.940115
982,992,3.30575,-0.0134257,0.290844,0.938546
991,983,3.30706,-0.00960127,0.289462,0.937264
1000,974,3.3058,-0.0178754,0.289922,0.936402
1009,965,3.30688,-0.00896866,0.289099,0.935173
1018,956,3.30592,-0.0155747,0.289105,0.9341
1027,947,3.30722,-0.0124177,0.287848,0.932476
1036,938,3.30628,-0.0120649,0.287827,0.931346
1045,929,3.30483,-0.015235,0.28874,0.930581
1054,920,3.30637,-0.0097121,0.287255,0.929077
1063,911,3.30483,-0.0118534,0.287918,0.92757
1072,902,3.30542,-0.0169227,0.287115,0.926343
1081,893,3.30473,-0.0182202,0.287571,0.925517
1090,884,3.30611,-0.0133159,0.28584,0.923657
1099,875,3.30519,-0.0129609,0.285722,0.922566
1108,866,3.30655,-0.00977501,0.284577,0.921175
1117,857,3.30524,-0.0112202,0.285025,0.91997
1126,848,3.3058,-0.0161816,0.284211,0.918819
1135,839,3.30493,-0.0164888,0.284211,0.917411
1144,830,3.30579,-0.0134624,0.283397,0.915463
1153,821,3.30468,-0.0130626,0.283393,0.914406
1162,812,3.30566,-0.00996105,0.282586,0.912527
1171,803,3.30465,-0.0183776,0.282582,0.91186
1180,794,3.30553,-0.0163401,0.281769,0.910675
1189,785,3.30448,-0.0148815,0.281772,0.908919
1198,776,3.30575,-0.0117157,0.280501,0.90721
1207,767,3.30457,-0.0131487,0.280954,0.906294
1216,758,3.30561,-0.011137,0.280145,0.905096
1225,749,3.30448,-0.0185824,0.280141,0.903695
1234,740,3.30506,-0.0154412,0.279319,0.901786
1243,731,3.30377,-0.0169204,0.279768,0.900831
1252,722,3.30498,-0.0129602,0.278493,0.899516
1261,713,3.3043,-0.0115147,0.278046,0.897918
1270,704,3.30462,-0.0174141,0.277679,0.896169
1279,695,3.30336,-0.0188281,0.278131,0.895261
1288,686,3.30413,-0.0174742,0.277322,0.893739
1297,677,3.30336,-0.0159486,0.276855,0.892125
1306,668,3.30487,-0.0119867,0.275597,0.890853
1315,659,3.30338,-0.0123235,0.275782,0.889327
1324,650,3.30364,-0.0183184,0.275205,0.887572
1333,641,3.30542,-0.0130888,0.273498,0.885877
1342,632,3.30402,-0.0127941,0.273486,0.884717
1351,623,3.30517,-0.0113238,0.272674,0.883228
1360,614,3.30386,-0.0171773,0.272686,0.88149
1369,605,3.30487,-0.0157704,0.271854,0.879899
1378,596,3.30348,-0.0172799,0.272309,0.878979
1387,587,3.30511,-0.0120534,0.270591,0.877212
1396,578,3.30343,-0.0143721,0.271497,0.875692
1405,569,3.30445,-0.0102407,0.27022,0.874402
1414,560,3.30322,-0.0180086,0.270225,0.873001
1423,551,3.30416,-0.0129101,0.268951,0.870919
1432,542,3.30517,-0.0107275,0.26813,0.869759
1441,533,3.30381,-0.0185212,0.268132,0.868347
1450,524,3.30463,-0.0170962,0.267297,0.866764
1459,515,3.30289,-0.0194578,0.2682,0.865229
1468,506,3.30411,-0.0160905,0.266923,0.86356
1477,497,3.30294,-0.0175555,0.267375,0.862666
1486,488,3.30411,-0.0122966,0.265645,0.85934
1495,479,3.30257,-0.0127612,0.266817,0.859127
1504,470,3.30354,-0.0187767,0.265291,0.857706
1513,461,3.30402,-0.0155107,0.264455,0.855742
1522,452,3.30293,-0.0158589,0.264454,0.854311
1531,443,3.30415,-0.0116439,0.263295,0.853033
1540,434,3.30286,-0.0120348,0.263169,0.851551
1549,425,3.30321,-0.0106384,0.2628,0.84979
1558,416,3.30175,-0.0129348,0.263257,0.848508
1567,407,3.30277,-0.0171753,0.261989,0.846835
1576,398,3.30368,-0.0118405,0.260695,0.84478
1585,389,3.30261,-0.0121666,0.260691,0.843355
1594,380,3.30291,-0.0184433,0.26033,0.841657
1603,371,3.30168,-0.0188245,0.260437,0.840196
1612,362,3.30294,-0.0133468,0.258586,0.838363
1621,353,3.30361,-0.0119849,0.258224,0.836621
1630,344,3.3025,-0.0122883,0.258221,0.83521
1639,335,3.30285,-0.0185679,0.257853,0.833521
1648,326,3.30211,-0.0181134,0.257398,0.832658
1657,317,3.30204,-0.016719,0.257017,0.830867
1666,308,3.30336,-0.0132365,0.255734,0.829181
1675,299,3.30222,-0.0135132,0.255734,0.827788
1684,290,3.3026,-0.0187003,0.255015,0.825541
1693,281,3.30154,-0.0170828,0.254443,0.823908
1702,272,3.30214,-0.0136817,0.254334,0.821995
1711,263,3.30279,-0.0109189,0.252787,0.819759
1720,254,3.30136,-0.0192119,0.252787,0.818589
1729,245,3.30197,-0.0158061,0.251991,0.8164
1738,236,3.30299,-0.012199,0.250674,0.814729
1747,227,3.30179,-0.0204812,0.250686,0.813401
1756,218,3.30295,-0.0168814,0.249402,0.811715
1765,209,3.30296,-0.0183289,0.249463,0.809701
1774,200,3.30214,-0.0146505,0.248556,0.807917
1783,191,3.30274,-0.0111113,0.247734,0.806057
1792,182,3.30297,-0.016399,0.246899,0.803799
1801,173,3.3015,-0.0188177,0.247342,0.802523
1810,164,3.3027,-0.0138538,0.245603,0.800349
1819,155,3.30323,-0.0103674,0.244772,0.798412
1828,146,3.30136,-0.0209046,0.245217,0.797165
1837,137,3.30177,-0.0202199,0.24484,0.795095
1846,128,3.30314,-0.0152698,0.243237,0.792889
1855,119,3.30376,-0.00964578,0.241816,0.790792
1864,110,3.30163,-0.0190631,0.242257,0.78879
1873,101,3.30269,-0.0161427,0.240976,0.786792
1882,92,3.30326,-0.0133533,0.240139,0.784531
1891,83,3.30383,-0.0179251,0.238852,0.782846
1900,74,3.30183,-0.0192277,0.239297,0.780836
1909,65,3.30265,-0.0143514,0.238015,0.778394
1918,56,3.30336,-0.0196399,0.236732,0.776426
1927,47,3.30405,-0.0155119,0.235445,0.773624
1936,38,3.30481,-0.0127131,0.234619,0.771408
1945,29,3.30234,-0.0223408,0.235069,0.769412
1954,20,3.30325,-0.0194497,0.23376,0.767323
1963,11,3.30384,-0.0152683,0.232475,0.764543
1971,3,3.30398,-0.0208407,0.231644,0.762338

File: HUST_1-6_cycle_feature_matrix.csv
cycle_number,rul,voltage,current,capacity,charge_capacity
1,1145,3.34606,-0.00131494,0.317888,1.06693
7,1139,3.32392,-0.00658649,0.33558,1.05173
13,1133,3.32419,-0.00662433,0.335813,1.04891
19,1127,3.3244,-0.00604732,0.335482,1.04695
25,1121,3.3247,-0.00513046,0.335235,1.0452
31,1115,3.32443,-0.0067277,0.335926,1.04401
37,1109,3.32516,-0.00512156,0.334562,1.04292
43,1103,3.32403,-0.00681769,0.335373,1.04141
49,1097,3.32508,-0.0054883,0.334731,1.04015
55,1091,3.32384,-0.00688396,0.335544,1.03884
61,1085,3.32312,-0.00805789,0.335956,1.03789
67,1079,3.32425,-0.00639024,0.334901,1.03726
73,1073,3.32408,-0.00739545,0.3349,1.03628
79,1067,3.3245,-0.00589332,0.334664,1.03496
85,1061,3.32439,-0.0068743,0.334668,1.03428
91,1055,3.32316,-0.0080288,0.3355,1.0332
97,1049,3.32473,-0.00581444,0.334435,1.03251
103,1043,3.32385,-0.00691474,0.334853,1.03173
109,1037,3.32342,-0.00801102,0.335269,1.03084
115,1031,3.32434,-0.00586125,0.334627,1.03011
121,1025,3.3238,-0.00694574,0.335034,1.02918
127,1019,3.32333,-0.00746708,0.335033,1.02881
133,1013,3.32441,-0.00579498,0.335126,1.02778
139,1007,3.32383,-0.00637632,0.334814,1.02721
145,1001,3.32309,-0.00751284,0.335232,1.02627
151,995,3.32424,-0.00535726,0.334608,1.02557
157,989,3.32347,-0.00639406,0.335017,1.02467
163,983,3.32325,-0.00691316,0.335016,1.02432
169,977,3.32205,-0.00758959,0.335853,1.02354
175,971,3.3237,-0.00584492,0.33479,1.02266
181,965,3.32245,-0.00657011,0.335637,1.02185
187,959,3.32257,-0.0075895,0.33564,1.02116
193,953,3.32161,-0.00823248,0.336063,1.02056
199,947,3.32331,-0.00593863,0.335003,1.02007
205,941,3.3229,-0.00647707,0.334999,1.01965
211,935,3.32206,-0.0071256,0.33541,1.01904
217,929,3.32194,-0.00748657,0.335914,1.01861
223,923,3.32243,-0.00606615,0.335189,1.01734
229,917,3.32218,-0.00658403,0.335194,1.017
235,911,3.3216,-0.00777438,0.335615,1.01604
241,905,3.32254,-0.00601766,0.334992,1.01503
247,899,3.3215,-0.00661623,0.335416,1.01445
253,893,3.32157,-0.00771855,0.33541,1.01369
259,887,3.32189,-0.00559573,0.335216,1.01275
265,881,3.32192,-0.00662645,0.335218,1.01207
271,875,3.32069,-0.0081088,0.336077,1.01076
277,869,3.32178,-0.00559739,0.335006,1.01035
283,863,3.3211,-0.00665429,0.335442,1.00978
289,857,3.32039,-0.00782056,0.335879,1.00856
295,851,3.32187,-0.00552028,0.334812,1.00802
301,845,3.32085,-0.0066948,0.335243,1.00706
307,839,3.32056,-0.00780236,0.335689,1.00621
313,833,3.31946,-0.00835692,0.336212,1.00567
319,827,3.3207,-0.00678728,0.33548,1.00444
325,821,3.32004,-0.00736859,0.335923,1.00392
331,815,3.31971,-0.00835881,0.335928,1.00331
337,809,3.3209,-0.00666444,0.335299,1.00216
343,803,3.31991,-0.00729626,0.335729,1.00156
349,797,3.31946,-0.00841826,0.336185,1.00074
355,791,3.31979,-0.00620506,0.336012,0.999823
361,785,3.32018,-0.00668496,0.335791,0.999406
367,779,3.31929,-0.00789076,0.335986,0.998615
373,773,3.32056,-0.00615682,0.335387,0.997599
379,767,3.31988,-0.00678779,0.335824,0.997033
385,761,3.31896,-0.00790294,0.336276,0.996157
391,755,3.32034,-0.00559239,0.335178,0.995505
397,749,3.31942,-0.0067416,0.33609,0.994497
403,743,3.31894,-0.00735423,0.336071,0.994052
409,737,3.31812,-0.00853752,0.33651,0.99307
415,731,3.31932,-0.00626524,0.335204,0.992449
421,725,3.3188,-0.00740649,0.33588,0.991559
427,719,3.31777,-0.00805808,0.336321,0.990953
433,713,3.31939,-0.00623778,0.335249,0.990027
439,707,3.31831,-0.00756487,0.336146,0.988869
445,701,3.31781,-0.00864594,0.336164,0.988201
451,695,3.31898,-0.00632379,0.335524,0.987419
457,689,3.31794,-0.00753562,0.335978,0.986459
463,683,3.3174,-0.00877872,0.336696,0.985549
469,677,3.31858,-0.00697065,0.335842,0.984503
475,671,3.31789,-0.00750999,0.335809,0.984075
481,665,3.31696,-0.00878104,0.336258,0.983068
487,659,3.31756,-0.00700219,0.336107,0.981835
493,653,3.31755,-0.00815734,0.336122,0.981124
499,647,3.31822,-0.00638636,0.335432,0.979917
505,641,3.31716,-0.00757358,0.335929,0.978995
511,635,3.3167,-0.00878161,0.336414,0.978125
517,629,3.31754,-0.00692953,0.335798,0.977057
523,623,3.31674,-0.00820062,0.336251,0.976059
529,617,3.31786,-0.00483597,0.335173,0.974815
535,611,3.31638,-0.00616121,0.3361,0.973661
541,605,3.31621,-0.00724982,0.335635,0.973114
547,599,3.31668,-0.0116102,0.335487,0.971585
553,593,3.31596,-0.00973773,0.335014,0.970551
559,587,3.31699,-0.00637373,0.333934,0.9693
565,581,3.31629,-0.00822422,0.334398,0.967952
571,575,3.31623,-0.0111323,0.333772,0.966418
577,569,3.31629,-0.0107673,0.333316,0.965528
583,563,3.31696,-0.00898836,0.332697,0.964373
589,557,3.31604,-0.00919467,0.33269,0.961452
595,551,3.31737,-0.00431461,0.331154,0.961483
601,545,3.31606,-0.0122353,0.331617,0.960224
607,539,3.31498,-0.0135655,0.33208,0.959228
613,533,3.316,-0.00922376,0.330996,0.957244
619,527,3.31628,-0.00744288,0.330852,0.955969
625,521,3.31566,-0.00776305,0.330385,0.954607
631,515,3.31638,-0.011224,0.329779,0.9528
637,509,3.31472,-0.0124841,0.330714,0.951723
643,503,3.31637,-0.00801936,0.3287,0.949871
649,497,3.31543,-0.00829125,0.328696,0.948602
655,491,3.31613,-0.00497857,0.327619,0.947259
661,485,3.31462,-0.0131715,0.328789,0.945949
667,479,3.31555,-0.0102908,0.328148,0.944109
673,473,3.31391,-0.0106803,0.327989,0.942443
679,467,3.31514,-0.00725939,0.32686,0.941162
685,461,3.31596,-0.00445102,0.325825,0.939486
691,455,3.31419,-0.0131708,0.326722,0.937684
697,449,3.315215,-0.00974113,0.325639,0.936384
703,443,3.31439,-0.00846483,0.325179,0.934752
709,437,3.31489,-0.00715425,0.324664,0.933275
715,431,3.31562,-0.00911878,0.323505,0.931269
721,425,3.31424,-0.011084,0.323949,0.929848
727,419,3.31472,-0.00824517,0.323354,0.928075
733,413,3.31376,-0.00761435,0.323378,0.925918
739,407,3.3148,-0.0104098,0.32183,0.924807
745,401,3.31469,-0.0098111,0.321676,0.922719
751,395,3.31393,-0.00691096,0.321215,0.920758
757,389,3.31455,-0.00568116,0.320627,0.91928
763,383,3.31448,-0.0108216,0.320481,0.917605
769,377,3.313,-0.010239,0.320939,0.9152
775,371,3.31432,-0.00727535,0.319165,0.913714
781,365,3.31405,-0.00449367,0.319284,0.911721
787,359,3.31316,-0.0127548,0.319274,0.910619
793,353,3.31375,-0.00884826,0.318196,0.908218
799,347,3.314,-0.00607957,0.3176,0.906329
805,341,3.31273,-0.00639884,0.317593,0.905086
811,335,3.31309,-0.0105836,0.316991,0.902616
817,329,3.31379,-0.00762984,0.315921,0.900944
823,323,3.31176,-0.0071177,0.316635,0.89851
829,317,3.31243,-0.00581832,0.31579,0.897011
835,311,3.3129,-0.00845178,0.314667,0.894664
841,305,3.31139,-0.00941596,0.315202,0.892632
847,299,3.31175,-0.0129734,0.314141,0.890988
853,293,3.31141,-0.00564719,0.315221,0.888857
859,287,3.31229,-0.0100267,0.313425,0.88677
865,281,3.31029,-0.00949727,0.313886,0.884314
871,275,3.31098,-0.00654758,0.312912,0.882626
877,269,3.31106,-0.0091451,0.311746,0.880224
883,263,3.31071,-0.00859971,0.312115,0.878019
889,257,3.31161,-0.00454923,0.31059,0.875823
895,251,3.30952,-0.0139508,0.311526,0.873962
901,245,3.30947,-0.00996572,0.310931,0.871364
907,239,3.31041,-0.00592075,0.309397,0.869134
913,233,3.30965,-0.0121146,0.309758,0.86689
919,227,3.31037,-0.00788215,0.308231,0.864745
925,221,3.30739,-0.00978678,0.309647,0.861894
931,215,3.30792,-0.0141309,0.308595,0.859906
937,209,3.30809,-0.0117666,0.308023,0.857724
943,203,3.30838,-0.00762467,0.306955,0.855318
949,197,3.3082,-0.00707053,0.306848,0.853214
955,191,3.30788,-0.0105286,0.306261,0.85027
961,185,3.30852,-0.00642953,0.305234,0.84791
967,179,3.30839,-0.0115177,0.304652,0.845359
973,173,3.30644,-0.010884,0.304632,0.84305
979,167,3.30638,-0.00850927,0.304055,0.840816
985,161,3.30583,-0.0138853,0.303965,0.838012
991,155,3.30654,-0.00958885,0.302673,0.83582
997,149,3.3063,-0.00613438,0.301862,0.832852
1003,143,3.30578,-0.0124367,0.302495,0.830835
1009,137,3.30594,-0.00897826,0.300694,0.82798
1015,131,3.30608,-0.00646582,0.300143,0.825837
1021,125,3.30538,-0.0118704,0.300809,0.823059
1027,119,3.30331,-0.0111948,0.300061,0.820815
1033,113,3.30299,-0.00773298,0.299495,0.817824
1039,107,3.30306,-0.0140689,0.298921,0.816011
1045,101,3.30313,-0.00875275,0.297882,0.812855
1051,95,3.30313,-0.00696286,0.297309,0.810229
1057,89,3.30274,-0.011698,0.296745,0.807993
1063,83,3.30294,-0.00805371,0.295706,0.805218
1069,77,3.30264,-0.0109768,0.294659,0.802789
1075,71,3.30225,-0.0110144,0.294583,0.800394
1081,65,3.30219,-0.00667553,0.293541,0.797963
1087,59,3.30172,-0.0103529,0.292985,0.795004
1093,53,3.30015,-0.0095662,0.292495,0.792941
1099,47,3.2993,-0.0151549,0.292432,0.790175
1105,41,3.29963,-0.0106981,0.290907,0.78792
1111,35,3.29861,-0.0108422,0.291327,0.785608
1117,29,3.2989,-0.0136597,0.289881,0.783133
1123,23,3.29893,-0.00928979,0.288765,0.780674
1129,17,3.298825,-0.0130237,0.28774,0.77788
1135,11,3.29839,-0.0104731,0.28719,0.775658
1141,5,3.29611,-0.0115067,0.28717,0.773806
1143,3,3.29697,-0.00759228,0.286641,0.772267