Folder: MyBatteryML/hust_correlation_analysis/matrices (part 39)

File: HUST_10-8_cycle_feature_matrix.csv
cycle_number,rul,voltage,current,capacity,charge_capacity
1,1402,3.31612,-0.00556503,0.299551,1.04309
8,1395,3.30754,-0.00516452,0.302182,1.03718
15,1388,3.30706,-0.00689607,0.302176,1.03604
22,1381,3.30912,-0.00578067,0.300677,1.03491
29,1374,3.30826,-0.00704718,0.301372,1.03391
36,1367,3.30748,-0.00771621,0.301047,1.03345
43,1360,3.30885,-0.00616575,0.300035,1.03246
50,1353,3.30865,-0.00672257,0.29993,1.0321
57,1346,3.30866,-0.00783763,0.29993,1.03135
64,1339,3.30812,-0.00845659,0.29993,1.03094
71,1332,3.30986,-0.00668582,0.298809,1.03008
78,1325,3.30937,-0.00720523,0.299065,1.02973
85,1318,3.30881,-0.00789336,0.299184,1.02912
92,1311,3.30996,-0.00608096,0.298066,1.02829
99,1304,3.30939,-0.00673162,0.298441,1.0277
106,1297,3.30969,-0.00726879,0.298062,1.02748
113,1290,3.30954,-0.00832727,0.298438,1.02664
120,1283,3.31105,-0.00614394,0.297318,1.02604
127,1276,3.31054,-0.00614161,0.297319,1.02605
134,1269,3.30989,-0.00716956,0.297697,1.0252
141,1262,3.30952,-0.00775894,0.297695,1.02479
148,1255,3.30954,-0.00825831,0.297689,1.02445
155,1248,3.31123,-0.00596172,0.296576,1.02394
162,1241,3.31115,-0.00651213,0.296573,1.02357
169,1234,3.31044,-0.00711446,0.296948,1.02301
176,1227,3.30976,-0.00774829,0.297323,1.02242
183,1220,3.31005,-0.00779568,0.296945,1.02255
190,1213,3.3099,-0.00831717,0.296944,1.0222
197,1206,3.31145,-0.00613523,0.29583,1.02187
204,1199,3.31087,-0.00661461,0.296203,1.02113
211,1192,3.31058,-0.00673461,0.296202,1.02105
218,1185,3.31043,-0.00713744,0.2962,1.02076
225,1178,3.3106,-0.00770844,0.296203,1.02038
232,1171,3.31007,-0.00817127,0.296576,1.01992
239,1164,3.30955,-0.00869893,0.296579,1.01955
246,1157,3.31085,-0.00638084,0.295457,1.01906
253,1150,3.31103,-0.00695223,0.295459,1.01869
260,1143,3.31095,-0.00753808,0.295457,1.01828
267,1136,3.31053,-0.00790298,0.295454,1.01803
274,1129,3.30976,-0.00857479,0.295831,1.01742
281,1122,3.31132,-0.00586754,0.294714,1.01719
288,1115,3.31151,-0.00682758,0.29479,1.01654
295,1108,3.31138,-0.00735383,0.29471,1.01617
302,1101,3.31058,-0.0075102,0.295086,1.01591
309,1094,3.3103,-0.00852051,0.295088,1.01523
316,1087,3.31205,-0.00619704,0.29397,1.01472
323,1080,3.31178,-0.00625065,0.293967,1.01468
330,1073,3.31128,-0.00733827,0.294345,1.01379
337,1066,3.31099,-0.0078246,0.294341,1.01347
344,1059,3.31063,-0.00848454,0.294723,1.01288
351,1052,3.31199,-0.00614038,0.2936,1.01263
358,1045,3.31174,-0.00665307,0.293599,1.01201
365,1038,3.31152,-0.00727105,0.293599,1.01159
372,1031,3.31121,-0.00791519,0.293975,1.01103
379,1024,3.31092,-0.00832766,0.29375,1.01074
386,1017,3.31181,-0.00612832,0.293234,1.00999
393,1010,3.3123,-0.006123,0.292817,1.01013
400,1003,3.31186,-0.00713237,0.293234,1.00931
407,996,3.31132,-0.00725066,0.293231,1.0092
414,989,3.31093,-0.00786355,0.293229,1.00879
421,982,3.31096,-0.00844981,0.29323,1.00842
428,975,3.31241,-0.00615063,0.292108,1.00786
435,968,3.31181,-0.00686504,0.292485,1.00723
442,961,3.31179,-0.00736442,0.292486,1.00691
449,954,3.31157,-0.00793557,0.292484,1.00652
456,947,3.3109,-0.00859957,0.292867,1.00594
463,940,3.31222,-0.00621148,0.291745,1.00544
470,933,3.31238,-0.00675241,0.291744,1.00508
477,926,3.31194,-0.00735873,0.291743,1.00466
484,919,3.311175,-0.00802372,0.292118,1.00406
491,912,3.31312,-0.00613005,0.291,1.00324
498,905,3.31279,-0.00680014,0.290998,1.00278
505,898,3.31225,-0.00743902,0.291377,1.0022
512,891,3.31194,-0.00780262,0.291375,1.00196
519,884,3.31334,-0.00547132,0.290255,1.00137
526,877,3.31272,-0.00607895,0.290629,1.00085
533,870,3.31203,-0.00724563,0.291008,0.999923
540,863,3.31192,-0.00782028,0.29101,0.999541
547,856,3.31127,-0.0083309,0.291007,0.999185
554,849,3.31253,-0.00610798,0.289881,0.998558
561,842,3.31247,-0.00731917,0.290263,0.997606
568,835,3.31205,-0.00781612,0.290259,0.997256
575,828,3.31155,-0.00847744,0.290259,0.996813
582,821,3.31328,-0.00607676,0.289136,0.996325
589,814,3.31257,-0.00736684,0.289518,0.995314
596,807,3.31215,-0.00806394,0.289518,0.994827
603,800,3.31334,-0.00615679,0.2891,0.99385
610,793,3.3129,-0.00673837,0.288775,0.993469
617,786,3.31225,-0.00793763,0.289159,0.992519
624,779,3.31378,-0.00544136,0.288034,0.992074
631,772,3.31295,-0.00670484,0.288413,0.991075
638,765,3.31248,-0.00728953,0.288412,0.990672
645,758,3.31178,-0.00857942,0.28879,0.98967
652,751,3.31322,-0.00624986,0.287667,0.989095
659,744,3.31231,-0.00745293,0.288049,0.988138
666,737,3.31218,-0.00809957,0.288049,0.987717
673,730,3.3133,-0.00687034,0.28731,0.986258
680,723,3.31226,-0.00747123,0.287695,0.985733
687,716,3.31205,-0.00854556,0.287694,0.985005
694,709,3.31341,-0.00686643,0.286571,0.983999
701,702,3.3121,-0.00813102,0.287338,0.982875
708,695,3.31202,-0.0087285,0.286951,0.982605
715,688,3.31326,-0.00691826,0.28621,0.981544
722,681,3.31213,-0.00807266,0.286594,0.980627
729,674,3.31356,-0.00634803,0.285469,0.979628
736,667,3.31253,-0.00808469,0.286239,0.978199
743,660,3.31322,-0.0063632,0.285499,0.977043
750,653,3.31304,-0.00749488,0.285495,0.976538
757,646,3.31215,-0.00867586,0.285882,0.975361
764,639,3.31281,-0.00688491,0.28514,0.974246
771,632,3.31245,-0.00800869,0.285137,0.973491
778,625,3.31381,-0.0062019,0.284006,0.97253
785,618,3.31222,-0.00752279,0.284781,0.971363
792,611,3.31356,-0.00571988,0.28365,0.970395
799,604,3.31281,-0.00761039,0.284033,0.968993
806,597,3.31158,-0.0089745,0.284419,0.967942
813,590,3.31264,-0.00721556,0.283685,0.966821
820,583,3.31171,-0.0089376,0.284071,0.96553
827,576,3.31291,-0.00704758,0.28294,0.964598
834,569,3.31305,-0.00577173,0.282594,0.963002
841,562,3.31251,-0.0076955,0.283315,0.961597
848,555,3.31351,-0.00591968,0.281852,0.960577
855,548,3.31199,-0.00778305,0.282629,0.959305
862,541,3.3126,-0.00648603,0.281894,0.957603
869,534,3.31187,-0.00837038,0.282285,0.956222
876,527,3.31237,-0.0072501,0.281544,0.954615
883,520,3.31089,-0.00753933,0.281937,0.953007
890,513,3.31161,-0.0062299,0.281195,0.951522
897,506,3.31279,-0.00866398,0.279665,0.949358
904,499,3.31367,-0.00426542,0.278139,0.94761
911,492,3.31161,-0.00773356,0.279314,0.946209
918,485,3.31286,-0.00959805,0.277394,0.944558
925,478,3.31171,-0.00902808,0.277394,0.942366
932,471,3.3125,-0.00612302,0.276263,0.94077
939,464,3.31302,-0.00493929,0.275517,0.939192
946,457,3.31161,-0.0107177,0.27552,0.936938
953,450,3.31258,-0.00633871,0.273999,0.935139
960,443,3.31231,-0.0120247,0.273648,0.93306
967,436,3.31373,-0.00756046,0.271743,0.931433
974,429,3.31247,-0.00697662,0.271741,0.929239
981,422,3.3126,-0.00626899,0.271368,0.927229
988,415,3.31313,-0.00888281,0.270262,0.924836
995,408,3.31346,-0.00601495,0.269135,0.923186
1002,401,3.31178,-0.00855183,0.269908,0.921306
1009,394,3.31288,-0.0110203,0.268587,0.919138
1016,387,3.31281,-0.0089127,0.267655,0.916866
1023,380,3.31309,-0.00671846,0.266912,0.914646
1030,373,3.31211,-0.0123491,0.266523,0.912664
1037,366,3.31241,-0.00863798,0.2654,0.910234
1044,359,3.31279,-0.00635874,0.264655,0.908052
1051,352,3.31346,-0.00884367,0.26315,0.905888
1058,345,3.31341,-0.00662302,0.262413,0.903665
1065,338,3.31375,-0.010891,0.261718,0.901421
1072,331,3.31256,-0.0101219,0.261287,0.89944
1079,324,3.31244,-0.00946922,0.26093,0.897388
1086,317,3.31326,-0.0111097,0.259433,0.894487
1093,310,3.31275,-0.00988901,0.259069,0.892777
1100,303,3.31356,-0.00664325,0.257955,0.890045
1107,296,3.31408,-0.00913585,0.256456,0.887888
1114,289,3.31189,-0.0117606,0.257209,0.885986
1121,282,3.31267,-0.013421,0.255716,0.883062
1128,275,3.31237,-0.010628,0.254974,0.881164
1135,268,3.31341,-0.00577417,0.253487,0.878239
1142,261,3.31297,-0.00522214,0.253124,0.876125
1149,254,3.31341,-0.00944023,0.252388,0.873979
1156,247,3.31193,-0.00932602,0.252384,0.871443
1163,240,3.31151,-0.013722,0.251647,0.869176
1170,233,3.31248,-0.00979511,0.250159,0.866918
1177,226,3.312,-0.00757526,0.249795,0.86454
1184,219,3.31314,-0.010732,0.24831,0.861991
1191,212,3.31211,-0.0102756,0.248319,0.859714
1198,205,3.31307,-0.0112389,0.246464,0.857339
1205,198,3.31069,-0.00796102,0.24758,0.854907
1212,191,3.31186,-0.00885242,0.245722,0.852559
1219,184,3.31133,-0.00732355,0.245359,0.849746
1226,177,3.31143,-0.0116135,0.244622,0.847602
1233,170,3.31144,-0.00981827,0.243882,0.845061
1240,163,3.31215,-0.011533,0.242404,0.842113
1247,156,3.31112,-0.0109505,0.242411,0.839902
1254,149,3.31252,-0.00749061,0.240929,0.837292
1261,142,3.31148,-0.0058516,0.240938,0.834391
1268,135,3.31255,-0.010245,0.239459,0.832494
1275,128,3.31227,-0.00684995,0.238721,0.829566
1282,121,3.3124,-0.00512363,0.237987,0.826977
1289,114,3.31278,-0.00674543,0.236514,0.824079
1296,107,3.31203,-0.00623849,0.236515,0.821821
1303,100,3.3127,-0.00966749,0.23541,0.819072
1310,93,3.31252,-0.00613744,0.234305,0.816315
1317,86,3.31067,-0.00795706,0.234668,0.813834
1324,79,3.31051,-0.0125823,0.233933,0.811595
1331,72,3.31021,-0.0126241,0.233566,0.809147
1338,65,3.31079,-0.00909771,0.232462,0.806397
1345,58,3.31061,-0.0144133,0.231729,0.803784
1352,51,3.3099,-0.0127972,0.231361,0.800983
1359,44,3.31127,-0.00921051,0.229888,0.798375
1366,37,3.31036,-0.0145001,0.229524,0.795695
1373,30,3.31011,-0.0145867,0.22916,0.793236
1380,23,3.31117,-0.00819182,0.227322,0.789695
1387,16,3.31046,-0.0153081,0.226954,0.787314
1394,9,3.31218,-0.0118725,0.22549,0.784678
1400,3,3.31162,-0.00997648,0.224751,0.782052