Folder: MyBatteryML/hust_correlation_analysis/matrices (part 13)

File: HUST_4-2_cycle_feature_matrix.csv
cycle_number,rul,voltage,current,capacity,charge_capacity
1,1784,3.30092,0.0240521,0.358702,1.06977
10,1775,3.28981,-0.00763407,0.37141,1.05106
19,1766,3.29502,-0.00444177,0.366831,1.05742
28,1757,3.29616,-0.00528352,0.364424,1.0599
37,1748,3.29748,-0.00546556,0.36316,1.06011
46,1739,3.29836,-0.00499347,0.361868,1.06089
55,1730,3.29809,-0.00556075,0.361896,1.06037
64,1721,3.30034,-0.00395239,0.360161,1.05989
73,1712,3.29932,-0.0050184,0.360942,1.05874
82,1703,3.2994,-0.00586183,0.360563,1.05826
91,1694,3.30026,-0.00399907,0.360003,1.05745
100,1685,3.30018,-0.00478525,0.360016,1.05688
109,1676,3.2997,-0.00592807,0.360413,1.05581
118,1667,3.30093,-0.00387692,0.359477,1.05538
127,1658,3.30022,-0.00496064,0.360296,1.05429
136,1649,3.29957,-0.00542947,0.360709,1.0538
145,1640,3.30071,-0.00393594,0.360179,1.05276
154,1631,3.30026,-0.00452894,0.360181,1.05228
163,1622,3.29965,-0.00506706,0.360567,1.05166
172,1613,3.29903,-0.00596744,0.360989,1.05087
181,1604,3.30054,-0.00391136,0.360035,1.05037
190,1595,3.30007,-0.00446999,0.359994,1.04983
199,1586,3.29926,-0.00581447,0.360763,1.04967
208,1577,3.29892,-0.00688861,0.360789,1.04879
217,1568,3.3002,-0.00358955,0.359424,1.04817
226,1559,3.30007,-0.00439036,0.359427,1.04755
235,1550,3.29958,-0.00515885,0.359839,1.04684
244,1541,3.29925,-0.00598492,0.360273,1.04609
253,1532,3.30007,-0.00417954,0.359709,1.04522
262,1523,3.29994,-0.00461109,0.359733,1.04495
271,1514,3.29897,-0.00520025,0.360139,1.04431
280,1505,3.29943,-0.00599404,0.360174,1.0438
289,1496,3.29999,-0.00406796,0.359613,1.043
298,1487,3.30016,-0.00450065,0.359633,1.0427
307,1478,3.29904,-0.00511067,0.360036,1.04206
316,1469,3.29897,-0.00559409,0.360466,1.04161
325,1460,3.30003,-0.00400339,0.359932,1.04059
334,1451,3.30029,-0.00400734,0.359503,1.04068
343,1442,3.29946,-0.00496895,0.360379,1.03981
352,1433,3.29882,-0.00559232,0.360775,1.03911
361,1424,3.30038,-0.00378112,0.359856,1.03851
370,1415,3.29986,-0.00408968,0.360471,1.03812
379,1406,3.29967,-0.00449164,0.359802,1.03781
388,1397,3.29907,-0.00511065,0.36021,1.03717
397,1388,3.29897,-0.00602179,0.36023,1.0365
406,1379,3.3,-0.00401333,0.359682,1.03575
415,1370,3.29993,-0.00457423,0.359702,1.03527
424,1361,3.29935,-0.0050877,0.360119,1.03484
433,1352,3.29868,-0.00559281,0.360098,1.03441
442,1343,3.30034,-0.00400199,0.359621,1.03349
451,1334,3.2997,-0.00398026,0.359574,1.03341
460,1325,3.2996,-0.00501348,0.360042,1.03288
469,1316,3.29864,-0.0055076,0.360476,1.03213
478,1307,3.30023,-0.00338737,0.359518,1.03163
487,1298,3.29937,-0.0045069,0.360381,1.03055
496,1289,3.29921,-0.00503241,0.360375,1.03012
505,1280,3.29877,-0.00562799,0.360368,1.02964
514,1271,3.29817,-0.00615399,0.360779,1.02908
523,1262,3.29957,-0.00408338,0.359831,1.02856
532,1253,3.29899,-0.0046217,0.359818,1.0281
541,1244,3.29942,-0.00555172,0.359825,1.02738
550,1235,3.29839,-0.00619652,0.360678,1.02666
559,1226,3.29899,-0.00422328,0.359731,1.02604
568,1217,3.29954,-0.00431798,0.359746,1.02603
577,1208,3.29923,-0.00498969,0.359716,1.02542
586,1199,3.29893,-0.00571166,0.359719,1.0249
595,1190,3.29924,-0.00413927,0.359611,1.02364
604,1181,3.29915,-0.004556,0.359622,1.02336
613,1172,3.29948,-0.00557248,0.359624,1.02261
622,1163,3.29835,-0.00628703,0.360038,1.02189
631,1154,3.29975,-0.00403642,0.359002,1.02142
640,1145,3.29882,-0.00475506,0.359488,1.02072
649,1136,3.29839,-0.00565651,0.359933,1.01993
658,1127,3.29841,-0.00608453,0.359482,1.0197
667,1118,3.3003,-0.00433442,0.358553,1.01896
676,1109,3.29979,-0.00501452,0.358987,1.01831
685,1100,3.29946,-0.00553781,0.359009,1.01798
694,1091,3.30002,-0.00403045,0.358995,1.01668
703,1082,3.29984,-0.00449839,0.358904,1.0163
712,1073,3.29911,-0.005637,0.359338,1.01534
721,1064,3.29778,-0.00634209,0.359741,1.01458
730,1055,3.29881,-0.00479489,0.35924,1.01199
739,1046,3.29796,-0.00535842,0.359661,1.01291
748,1037,3.29774,-0.0062164,0.360132,1.01226
757,1028,3.2991,-0.00457227,0.359142,1.01123
766,1019,3.29844,-0.00523724,0.359583,1.01061
775,1010,3.29836,-0.00620061,0.359664,1.00988
784,1001,3.29935,-0.00401774,0.358572,1.00934
793,992,3.29831,-0.00526541,0.359513,1.00819
802,983,3.29809,-0.00587479,0.359515,1.00774
811,974,3.29922,-0.00415845,0.359103,1.00679
820,965,3.29882,-0.00517679,0.358992,1.00623
829,956,3.29811,-0.0056713,0.35946,1.00557
838,947,3.29901,-0.00417474,0.358917,1.00431
847,938,3.29863,-0.00513495,0.358902,1.00351
856,929,3.29754,-0.00589475,0.359344,1.00284
865,920,3.29892,-0.00428572,0.358371,1.00181
874,911,3.29824,-0.00522559,0.359278,1.00094
883,902,3.297,-0.00637489,0.359699,0.999899
892,893,3.29858,-0.00422626,0.358762,0.999348
901,884,3.29784,-0.00567191,0.359199,0.998138
910,875,3.29696,-0.00643643,0.359635,0.997417
919,866,3.29809,-0.0046669,0.358766,0.996564
928,857,3.29763,-0.00579642,0.359127,0.995611
937,848,3.2973,-0.00480564,0.359537,0.99381
946,839,3.29723,-0.00587687,0.359393,0.993008
955,830,3.29811,-0.00406208,0.359081,0.992046
964,821,3.29745,-0.00541514,0.359492,0.990972
973,812,3.29647,-0.00638744,0.359923,0.990072
982,803,3.29682,-0.00468957,0.359901,0.988949
991,794,3.29697,-0.00581379,0.359498,0.988206
1000,785,3.2975,-0.00430174,0.358923,0.986984
1009,776,3.2967,-0.00542447,0.359367,0.986018
1018,767,3.2975,-0.0036916,0.358855,0.984932
1027,758,3.29572,-0.00540369,0.360242,0.983331
1036,749,3.29523,-0.00679933,0.360206,0.982207
1045,740,3.29607,-0.00498319,0.359704,0.981222
1054,731,3.29508,-0.00666351,0.360153,0.979843
1063,722,3.29574,-0.00513684,0.358992,0.978587
1072,713,3.29525,-0.00661856,0.360125,0.977445
1081,704,3.29569,-0.00504569,0.359619,0.976223
1090,695,3.29493,-0.00646202,0.360104,0.975116
1099,686,3.29531,-0.00498739,0.360081,0.97374
1108,677,3.29448,-0.00665726,0.360545,0.972404
1117,668,3.2955,-0.00533977,0.360072,0.971038
1126,659,3.29381,-0.00661921,0.361,0.969853
1135,650,3.29478,-0.00533097,0.360537,0.968532
1144,641,3.29495,-0.00426384,0.360503,0.965391
1153,632,3.29403,-0.00594636,0.360985,0.965429
1162,623,3.29449,-0.00430249,0.360467,0.964197
1171,614,3.29345,-0.00611458,0.36093,0.962714
1180,605,3.29421,-0.00450744,0.360478,0.961603
1189,596,3.29259,-0.00627789,0.361397,0.960002
1198,587,3.29321,-0.00509307,0.361608,0.958468
1207,578,3.29363,-0.00438987,0.360952,0.956579
1216,569,3.29244,-0.00566544,0.361417,0.955502
1225,560,3.29257,-0.00452919,0.361417,0.953807
1234,551,3.29089,-0.00686947,0.362385,0.951876
1243,542,3.29149,-0.00571305,0.361852,0.950304
1252,533,3.29191,-0.00463688,0.361446,0.94871
1261,524,3.2904,-0.00696876,0.362411,0.946798
1270,515,3.29106,-0.00561751,0.361957,0.945412
1279,506,3.29057,-0.00510773,0.362461,0.943104
1288,497,3.29041,-0.00470828,0.362506,0.940896
1297,488,3.28928,-0.00648987,0.363029,0.939579
1306,479,3.28939,-0.00437752,0.362573,0.937375
1315,470,3.28974,-0.00684889,0.361626,0.935037
1324,461,3.29006,-0.00326255,0.360837,0.932737
1333,452,3.29012,-0.00710144,0.359176,0.930698
1342,443,3.28851,-0.00663879,0.359664,0.928303
1351,434,3.28884,-0.0104853,0.358718,0.926311
1360,425,3.289,-0.00690977,0.357758,0.92393
1369,416,3.28939,-0.00977438,0.356827,0.921345
1378,407,3.29002,-0.00773597,0.355879,0.9192
1387,398,3.29061,-0.00254481,0.354455,0.916794
1396,389,3.28838,-0.0101164,0.355457,0.914297
1405,380,3.28829,-0.00814313,0.354484,0.912038
1414,371,3.28883,-0.00950517,0.353058,0.909305
1423,362,3.2887,-0.00745894,0.352606,0.907049
1432,353,3.2884,-0.00593579,0.352161,0.904404
1441,344,3.28848,-0.00754821,0.35122,0.90137
1450,335,3.28869,-0.00392622,0.34979,0.899087
1459,326,3.28905,-0.00690129,0.348858,0.896413
1468,317,3.28858,-0.00691489,0.348908,0.893923
1477,308,3.28844,-0.00325096,0.347974,0.891552
1486,299,3.28911,-0.00466927,0.346076,0.888675
1495,290,3.28866,-0.00939606,0.34612,0.886128
1504,281,3.28848,-0.00531365,0.345195,0.88271
1513,272,3.28829,-0.00947825,0.344309,0.88059
1522,263,3.28794,-0.00848392,0.344327,0.877484
1531,254,3.28839,-0.00848989,0.342438,0.87446
1540,245,3.28911,-0.00527257,0.34106,0.871916
1549,236,3.2883,-0.00378077,0.341078,0.869056
1558,227,3.28802,-0.00844707,0.340162,0.866597
1567,218,3.2875,-0.00437638,0.339751,0.863058
1576,209,3.28751,-0.00908174,0.338834,0.860578
1585,200,3.28708,-0.00499299,0.338013,0.857139
1594,191,3.28744,-0.00819705,0.336533,0.854462
1603,182,3.28662,-0.0114344,0.336783,0.851525
1612,173,3.28854,-0.00559805,0.334329,0.848374
1621,164,3.28834,-0.00722339,0.332909,0.845335
1630,155,3.2879,-0.0062694,0.332492,0.84232
1639,146,3.28783,-0.0100469,0.331612,0.839227
1648,137,3.2874,-0.00536194,0.330696,0.83606
1657,128,3.28646,-0.0107794,0.330861,0.833019
1666,119,3.28645,-0.00910626,0.329897,0.830567
1675,110,3.28606,-0.0114091,0.328998,0.827064
1684,101,3.28624,-0.00496777,0.326664,0.824036
1693,92,3.28693,-0.00884288,0.325834,0.821025
1702,83,3.28669,-0.00312965,0.324459,0.817275
1711,74,3.28681,-0.00624407,0.323112,0.814721
1720,65,3.28561,-0.00762919,0.321747,0.810573
1729,56,3.28546,-0.0108399,0.320395,0.807911
1738,47,3.28524,-0.00666012,0.319152,0.804553
1747,38,3.28394,-0.0105809,0.318661,0.801213
1756,29,3.28559,-0.00399661,0.316433,0.798414
1765,20,3.28481,-0.00965631,0.316061,0.795371
1774,11,3.28452,-0.00377664,0.314267,0.7918
1782,3,3.28409,-0.00700579,0.312943,0.789129

File: HUST_4-3_cycle_feature_matrix.csv
cycle_number,rul,voltage,current,capacity,charge_capacity
1,1144,3.3116,-0.00669701,0.333026,1.02991
7,1138,3.29979,-0.00855607,0.338025,1.0243
13,1132,3.30184,-0.00741155,0.336458,1.02316
19,1126,3.30139,-0.00860522,0.336458,1.02243
25,1120,3.30244,-0.00684584,0.335347,1.02152
31,1114,3.30274,-0.00754694,0.334888,1.02123
37,1108,3.30279,-0.00870504,0.334875,1.02046
43,1102,3.30207,-0.00935357,0.334869,1.02004
49,1096,3.30285,-0.00703981,0.334187,1.0193
55,1090,3.30313,-0.00821354,0.333758,1.01873
61,1084,3.30325,-0.00877903,0.333743,1.01832
67,1078,3.30309,-0.00942124,0.33374,1.01793
73,1072,3.30479,-0.00753909,0.332632,1.0171
79,1066,3.30388,-0.0076403,0.333067,1.01687
85,1060,3.30324,-0.00826883,0.333057,1.01644
91,1054,3.30338,-0.00882611,0.333062,1.01609
97,1048,3.305,-0.00702199,0.331963,1.01525
103,1042,3.30507,-0.00756504,0.331954,1.01487
109,1036,3.30417,-0.00769697,0.332382,1.0146
115,1030,3.30453,-0.00824976,0.331952,1.01444
121,1024,3.30469,-0.00872117,0.331877,1.01442
127,1018,3.30372,-0.00937462,0.33239,1.01356
133,1012,3.30471,-0.0071077,0.331792,1.01278
139,1006,3.30427,-0.00766484,0.331724,1.01246
145,1000,3.30483,-0.00817111,0.331298,1.01234
151,994,3.30473,-0.00874771,0.33173,1.0118
157,988,3.30458,-0.00938299,0.331732,1.0114
163,982,3.30557,-0.00647164,0.331207,1.01109
169,976,3.30511,-0.00702736,0.331067,1.01072
175,970,3.30519,-0.00757613,0.331065,1.01036
181,964,3.30505,-0.00824004,0.330944,1.00993
187,958,3.30466,-0.00872572,0.331064,1.00964
193,952,3.30422,-0.00883651,0.331512,1.0094
199,946,3.30405,-0.00949337,0.331507,1.00898
205,940,3.30628,-0.00651888,0.330588,1.009
211,934,3.30643,-0.00706476,0.329968,1.00866
217,928,3.30547,-0.00769393,0.330399,1.00808
223,922,3.30478,-0.00774369,0.33037,1.00795
229,916,3.30439,-0.00816728,0.330368,1.00768
235,910,3.30466,-0.00836134,0.330346,1.00751
241,904,3.30513,-0.00893497,0.329919,1.00732
247,898,3.30453,-0.00959359,0.330348,1.00674
253,892,3.30554,-0.00725009,0.329684,1.00602
259,886,3.30519,-0.00782944,0.329686,1.00566
265,880,3.3054,-0.00776064,0.329243,1.00722
271,874,3.30541,-0.00835027,0.32924,1.00573
277,868,3.3054,-0.0088556,0.329253,1.00518
283,862,3.3047,-0.00948422,0.329762,1.0046
289,856,3.30611,-0.00718533,0.328564,1.00399
295,850,3.30609,-0.00724541,0.328573,1.00394
301,844,3.30571,-0.00835412,0.329013,1.00309
307,838,3.30532,-0.00893972,0.329018,1.00274
313,832,3.30487,-0.00889196,0.329015,1.00274
319,826,3.30446,-0.00959678,0.328953,1.0023
325,820,3.30672,-0.00719293,0.32792,1.00182
331,814,3.30652,-0.00768383,0.327915,1.00149
337,808,3.30615,-0.00834892,0.327911,1.00106
343,802,3.30548,-0.00891242,0.328349,0.999108
349,796,3.30459,-0.00953437,0.3288,1.00003
355,790,3.30664,-0.00717771,0.32726,0.999627
361,784,3.30684,-0.00776449,0.327243,0.999214
367,778,3.30656,-0.00833304,0.327689,0.998716
373,772,3.30621,-0.00887694,0.327697,0.998391
379,766,3.30524,-0.00955113,0.328139,0.997797
385,760,3.30649,-0.00720297,0.327011,0.997171
391,754,3.30674,-0.00777735,0.327035,0.996873
397,748,3.30673,-0.00831676,0.327037,0.996534
403,742,3.30651,-0.00894399,0.327034,0.996148
409,736,3.30627,-0.00943382,0.327029,0.995812
415,730,3.30703,-0.00714534,0.326365,0.995024
421,724,3.30669,-0.00775137,0.326378,0.994685
427,718,3.30667,-0.00835828,0.326364,0.994187
433,712,3.30662,-0.00902049,0.326354,0.993823
439,706,3.30614,-0.00960818,0.326359,0.993464
445,700,3.30758,-0.00717534,0.325377,0.992921
451,694,3.30658,-0.00789795,0.325687,0.992278
457,688,3.30623,-0.00852016,0.32568,0.99188
463,682,3.30624,-0.00903661,0.325686,0.991584
469,676,3.3082,-0.0071031,0.324577,0.990707
475,670,3.30775,-0.00779655,0.324571,0.990249
481,664,3.30694,-0.00841123,0.325005,0.9897
487,658,3.3058,-0.00971932,0.325908,0.988598
493,652,3.30678,-0.00732036,0.324798,0.98801
499,646,3.30684,-0.00793454,0.324339,0.987728
505,640,3.30708,-0.00848406,0.324334,0.987383
511,634,3.30886,-0.00658689,0.323256,0.986568
517,628,3.30811,-0.00786386,0.323684,0.985585
523,622,3.3075,-0.00845217,0.323679,0.98518
529,616,3.30618,-0.00917347,0.324562,0.984405
535,610,3.30708,-0.00729078,0.323924,0.983413
541,604,3.30668,-0.00851512,0.323927,0.982657
547,598,3.30685,-0.00898538,0.323483,0.982509
553,592,3.3081,-0.00724503,0.322823,0.981375
559,586,3.30772,-0.00842343,0.323275,0.980486
565,580,3.30725,-0.0090004,0.323272,0.980137
571,574,3.30806,-0.00724792,0.32261,0.978969
577,568,3.30715,-0.0085322,0.322981,0.978004
583,562,3.30685,-0.00903673,0.322617,0.977846
589,556,3.30772,-0.00732234,0.321948,0.976653
595,550,3.30751,-0.00849011,0.321951,0.975909
601,544,3.30672,-0.00976101,0.322291,0.974932
607,538,3.30772,-0.00795922,0.321733,0.973825
613,532,3.30677,-0.00923472,0.322171,0.972852
619,526,3.30809,-0.00737415,0.32106,0.971879
625,520,3.30708,-0.0085974,0.321428,0.970937
631,514,3.30628,-0.00988997,0.321966,0.970001
637,508,3.3069,-0.00811145,0.3213,0.96883
643,502,3.3063,-0.00931984,0.321296,0.968056
649,496,3.30713,-0.00754717,0.320639,0.966912
655,490,3.30688,-0.00926247,0.320646,0.965835
661,484,3.30785,-0.00740964,0.319981,0.964718
667,478,3.30729,-0.00860279,0.31998,0.963965
673,472,3.30811,-0.00680317,0.319319,0.962807
679,466,3.30719,-0.00873391,0.319758,0.961387
685,460,3.30809,-0.00742215,0.319114,0.959948
691,454,3.30699,-0.00879325,0.319564,0.958938
697,448,3.3077,-0.00753378,0.3189,0.95741
703,442,3.30696,-0.00874821,0.318908,0.956652
709,436,3.30784,-0.0122019,0.317801,0.955037
715,430,3.30652,-0.0125908,0.318239,0.953327
721,424,3.30796,-0.00811942,0.316216,0.95169
727,418,3.30626,-0.0148633,0.316669,0.950016
733,412,3.30722,-0.0120002,0.315559,0.948382
739,406,3.30834,-0.00850379,0.313993,0.947259
745,400,3.30752,-0.00730798,0.313528,0.945527
751,394,3.30763,-0.0129119,0.313339,0.943593
757,388,3.30824,-0.00851626,0.312142,0.941622
763,382,3.30693,-0.00894126,0.312272,0.940036
769,376,3.30729,-0.0124852,0.311114,0.93836
775,370,3.30825,-0.010198,0.310016,0.936338
781,364,3.30721,-0.010446,0.310008,0.934911
787,358,3.30801,-0.00817048,0.308912,0.932897
793,352,3.30868,-0.011728,0.307804,0.931196
799,346,3.30788,-0.0110207,0.307413,0.929197
805,340,3.30869,-0.00653634,0.306265,0.927282
811,334,3.30929,-0.0106352,0.305173,0.925531
817,328,3.30778,-0.0100944,0.305161,0.923015
823,322,3.30833,-0.00727975,0.304059,0.92109
829,316,3.30858,-0.0130216,0.303418,0.91946
835,310,3.30898,-0.00921561,0.302319,0.917071
841,304,3.30782,-0.0085522,0.301873,0.915026
847,298,3.30763,-0.0121564,0.301205,0.913168
853,292,3.30802,-0.00837564,0.300168,0.910754
859,286,3.30812,-0.013159,0.299466,0.908215
865,280,3.30855,-0.0109338,0.29837,0.906114
871,274,3.30728,-0.0119174,0.298368,0.904219
877,268,3.30851,-0.00796451,0.296852,0.902078
883,262,3.30897,-0.0121396,0.295757,0.900046
889,256,3.30977,-0.00661452,0.294227,0.897499
895,250,3.30974,-0.0115206,0.293581,0.894899
901,244,3.31004,-0.00777966,0.292499,0.892429
907,238,3.31047,-0.0123915,0.291413,0.890157
913,232,3.30865,-0.0118362,0.291411,0.887881
919,226,3.3086,-0.00961627,0.290751,0.885613
925,220,3.30787,-0.0146167,0.290526,0.882839
931,214,3.30843,-0.0106431,0.289024,0.880635
937,208,3.30884,-0.00905292,0.288382,0.878061
943,202,3.30901,-0.0132966,0.287295,0.876019
949,196,3.30965,-0.0100563,0.286226,0.873491
955,190,3.30988,-0.0132726,0.285151,0.870526
961,184,3.31006,-0.00992539,0.284073,0.867767
967,178,3.30964,-0.00675208,0.283419,0.86476
973,172,3.30981,-0.0111039,0.282349,0.862716
979,166,3.31012,-0.00680633,0.281286,0.85921
985,160,3.31023,-0.0117458,0.280211,0.856802
991,154,3.31076,-0.00771932,0.278704,0.854513
997,148,3.30979,-0.0133897,0.278479,0.851417
1003,142,3.30949,-0.0112007,0.277838,0.849123
1009,136,3.30957,-0.0068175,0.276769,0.84561
1015,130,3.30935,-0.0119902,0.276121,0.842965
1021,124,3.3093,-0.0086072,0.275163,0.840157
1027,118,3.30881,-0.0136886,0.274393,0.837548
1033,112,3.30856,-0.010984,0.273774,0.83429
1039,106,3.3086,-0.0143378,0.273313,0.831391
1045,100,3.30851,-0.0109978,0.271734,0.828688
1051,94,3.30817,-0.00824809,0.270999,0.825378
1057,88,3.30747,-0.0152278,0.270787,0.822963
1063,82,3.30935,-0.00893616,0.268669,0.819671
1069,76,3.30865,-0.00561715,0.268035,0.81666
1075,70,3.30784,-0.009742,0.267393,0.813357
1081,64,3.30741,-0.01403,0.266758,0.809983
1087,58,3.30816,-0.0111297,0.265286,0.807023
1093,52,3.3075,-0.00838704,0.264646,0.803664
1099,46,3.30693,-0.0136619,0.264012,0.801093
1105,40,3.30909,-0.00731557,0.261913,0.797749
1111,34,3.30794,-0.00630013,0.261709,0.794632
1117,28,3.3061,-0.0124254,0.261922,0.791323
1123,22,3.30594,-0.0149593,0.260867,0.787794
1129,16,3.30629,-0.0120129,0.259396,0.784808
1135,10,3.30835,-0.0127352,0.257306,0.781454
1141,4,3.30768,-0.00991343,0.256685,0.778124
1142,3,3.30681,-0.0106974,0.257102,0.777578