Folder: MyBatteryML/hust_correlation_analysis/matrices (part 23)

File: HUST_6-8_cycle_feature_matrix.csv
cycle_number,rul,voltage,current,capacity,charge_capacity
1,2452,3.33732,-0.0119926,0.274298,1.02784
13,2440,3.31806,-0.0172367,0.283134,1.01737
25,2428,3.31872,-0.01735,0.282143,1.01523
37,2416,3.31944,-0.0166695,0.281135,1.01341
49,2404,3.32057,-0.015305,0.280134,1.01192
61,2392,3.31927,-0.0174075,0.280551,1.01068
73,2380,3.32023,-0.0161045,0.27955,1.00918
85,2368,3.31956,-0.0180761,0.279554,1.00826
97,2356,3.32096,-0.0161864,0.278555,1.00704
109,2344,3.31978,-0.0181978,0.278987,1.00589
121,2332,3.32064,-0.0162827,0.277985,1.00466
133,2320,3.32061,-0.0176285,0.277988,1.00405
145,2308,3.32204,-0.0155377,0.276532,1.00316
157,2296,3.3212,-0.0169511,0.276992,1.00226
169,2284,3.32248,-0.014944,0.275793,1.00137
181,2272,3.32163,-0.0163662,0.276427,1.00022
193,2260,3.32047,-0.0178517,0.276859,0.999314
205,2248,3.32207,-0.0157416,0.275437,0.998438
217,2236,3.32162,-0.0170772,0.275851,0.997526
229,2224,3.32105,-0.0179382,0.275856,0.997158
241,2212,3.32283,-0.0158112,0.274436,0.99631
253,2200,3.32219,-0.0170837,0.274848,0.995418
265,2188,3.32044,-0.0171815,0.27569,0.994827
277,2176,3.31973,-0.0185868,0.276114,0.993914
289,2164,3.32127,-0.0158837,0.274674,0.993267
301,2152,3.32125,-0.0172652,0.274353,0.992922
313,2140,3.32079,-0.0186697,0.274677,0.992001
325,2128,3.32233,-0.0166394,0.273257,0.991132
337,2116,3.32148,-0.0172952,0.273671,0.990529
349,2104,3.3213,-0.0187176,0.27368,0.989907
361,2092,3.3226,-0.0160549,0.273153,0.989016
373,2080,3.32225,-0.0174586,0.272679,0.988388
385,2068,3.32199,-0.0180729,0.272674,0.988088
397,2056,3.32105,-0.0189012,0.273106,0.986308
409,2044,3.32291,-0.0167814,0.271676,0.986605
421,2032,3.32186,-0.0174963,0.272098,0.986014
433,2020,3.32124,-0.0189937,0.272538,0.985112
445,2008,3.3229,-0.0161679,0.271092,0.984514
457,1996,3.32262,-0.0169061,0.271106,0.984221
469,1984,3.32256,-0.0182491,0.271102,0.983596
481,1972,3.32184,-0.0189674,0.271537,0.983036
493,1960,3.32323,-0.0162347,0.270091,0.982391
505,1948,3.32302,-0.0168703,0.270082,0.982075
517,1936,3.32212,-0.0183489,0.270513,0.981153
529,1924,3.32143,-0.0191156,0.27094,0.980545
541,1912,3.32267,-0.0171035,0.269943,0.97939
553,1900,3.32292,-0.0176871,0.269495,0.979314
565,1888,3.32229,-0.0184004,0.269507,0.979023
577,1876,3.32412,-0.0163496,0.268484,0.977797
589,1864,3.32384,-0.0170514,0.268481,0.977468
601,1852,3.32377,-0.017818,0.268487,0.977145
613,1840,3.32247,-0.0191974,0.268908,0.976232
625,1828,3.32393,-0.0165416,0.26792,0.975422
637,1816,3.32369,-0.0180387,0.267916,0.974716
649,1804,3.32214,-0.0186327,0.268354,0.974477
661,1792,3.32372,-0.0166059,0.267341,0.972814
673,1780,3.32341,-0.0172489,0.267343,0.972763
685,1768,3.32311,-0.0187678,0.267341,0.972057
697,1756,3.3227,-0.0192862,0.267335,0.971793
709,1744,3.32392,-0.0166222,0.266318,0.970867
721,1732,3.3238,-0.0180379,0.266312,0.970206
733,1720,3.32296,-0.0187592,0.267174,0.969637
745,1708,3.32453,-0.0166483,0.265292,0.968687
757,1696,3.32394,-0.0174846,0.265939,0.968087
769,1684,3.32254,-0.0188753,0.266165,0.967222
781,1672,3.32244,-0.0196329,0.266158,0.966857
793,1660,3.3241,-0.0175246,0.265121,0.965611
805,1648,3.32321,-0.0182146,0.265131,0.96533
817,1636,3.32261,-0.0198123,0.265569,0.964374
829,1624,3.32443,-0.0166331,0.264109,0.96389
841,1612,3.32354,-0.0182436,0.264532,0.962896
853,1600,3.32324,-0.0190284,0.265017,0.962557
865,1588,3.32481,-0.0168362,0.263495,0.961332
877,1576,3.32408,-0.0176005,0.263508,0.961043
889,1564,3.32352,-0.019133,0.263933,0.960069
901,1552,3.32523,-0.0170102,0.262912,0.958889
913,1540,3.32381,-0.0178239,0.263351,0.958288
925,1528,3.32371,-0.0192079,0.263346,0.95765
937,1516,3.32258,-0.0200485,0.263793,0.957065
949,1504,3.32402,-0.0177168,0.26232,0.956165
961,1492,3.32349,-0.0192844,0.262759,0.955222
973,1480,3.32287,-0.0200159,0.262754,0.954879
985,1468,3.32311,-0.0177516,0.262154,0.953457
997,1456,3.32327,-0.0186331,0.262159,0.953089
1009,1444,3.32231,-0.020192,0.262592,0.952127
1021,1432,3.32366,-0.0180953,0.261573,0.950934
1033,1420,3.32354,-0.0195427,0.261558,0.950242
1045,1408,3.3251,-0.0165033,0.260097,0.949702
1057,1396,3.32381,-0.0179969,0.260525,0.948761
1069,1384,3.32328,-0.0196005,0.260956,0.947773
1081,1372,3.32452,-0.0174862,0.26013,0.946333
1093,1360,3.32319,-0.0189949,0.260371,0.945659
1105,1348,3.32271,-0.0205597,0.260826,0.94476
1117,1336,3.32405,-0.0176012,0.259334,0.944111
1129,1324,3.32299,-0.0192224,0.260262,0.941707
1141,1312,3.3248,-0.0177046,0.258752,0.941666
1153,1300,3.32366,-0.0184168,0.259172,0.941032
1165,1288,3.32231,-0.0198938,0.259622,0.940149
1177,1276,3.32365,-0.0177327,0.258563,0.938856
1189,1264,3.3224,-0.0193267,0.259007,0.937892
1201,1252,3.32215,-0.0207704,0.259014,0.937293
1213,1240,3.32333,-0.0185554,0.25796,0.936038
1225,1228,3.32203,-0.0202572,0.258865,0.934825
1237,1216,3.32281,-0.0188434,0.258268,0.932982
1249,1204,3.32191,-0.0202579,0.258262,0.932352
1261,1192,3.32263,-0.0181329,0.257669,0.93083
1273,1180,3.3215,-0.0196715,0.258127,0.929928
1285,1168,3.32294,-0.0181847,0.257496,0.928363
1297,1156,3.32134,-0.019776,0.25753,0.927419
1309,1144,3.32016,-0.0213939,0.257987,0.926459
1321,1132,3.3208,-0.0200773,0.2574,0.924623
1333,1120,3.3221,-0.017723,0.256332,0.923381
1345,1108,3.31999,-0.0201644,0.257257,0.921852
1357,1096,3.32119,-0.0185941,0.256194,0.920283
1369,1084,3.31956,-0.0210885,0.257121,0.918718
1381,1072,3.32058,-0.0185354,0.256056,0.917559
1393,1060,3.3193,-0.0211369,0.256507,0.91616
1405,1048,3.32048,-0.0176512,0.25545,0.914202
1417,1036,3.31797,-0.0200605,0.256383,0.91292
1429,1024,3.31969,-0.0237103,0.25436,0.911557
1441,1012,3.32051,-0.0180477,0.252821,0.909529
1453,1000,3.31841,-0.0205644,0.253748,0.907943
1465,988,3.31964,-0.0250729,0.252196,0.906264
1477,976,3.31761,-0.027728,0.253144,0.904702
1489,964,3.31887,-0.0228208,0.251587,0.902302
1501,952,3.31901,-0.021229,0.250984,0.899145
1513,940,3.31755,-0.0215995,0.250982,0.899126
1525,928,3.31859,-0.0181545,0.249899,0.897092
1537,916,3.31795,-0.0257838,0.249769,0.894668
1549,904,3.31692,-0.0259942,0.249289,0.893617
1561,892,3.31792,-0.0232687,0.2482,0.891275
1573,880,3.31846,-0.0195985,0.247118,0.889348
1585,868,3.31611,-0.0208399,0.247583,0.887361
1597,856,3.31627,-0.0277979,0.246963,0.885485
1609,844,3.31758,-0.0205908,0.244915,0.88298
1621,832,3.31487,-0.0252208,0.245849,0.881804
1633,820,3.31618,-0.0201825,0.244351,0.879425
1645,808,3.31609,-0.0186481,0.24384,0.877509
1657,796,3.31637,-0.0264656,0.243014,0.875311
1669,784,3.31443,-0.0270927,0.243502,0.873659
1681,772,3.31581,-0.0216408,0.241437,0.871632
1693,760,3.31595,-0.0274113,0.240331,0.869335
1705,748,3.31629,-0.0223724,0.238747,0.866906
1717,736,3.31393,-0.0272858,0.240161,0.865427
1729,724,3.31414,-0.0265417,0.239522,0.863216
1741,712,3.31483,-0.021286,0.237919,0.860817
1753,700,3.31554,-0.0248512,0.236329,0.858462
1765,688,3.31348,-0.0298011,0.237275,0.857272
1777,676,3.31441,-0.0223456,0.23519,0.854783
1789,664,3.31496,-0.0192412,0.234074,0.8525
1801,652,3.31471,-0.0275526,0.233598,0.850255
1813,640,3.31252,-0.028915,0.233891,0.848296
1825,628,3.31297,-0.0259148,0.232756,0.845977
1837,616,3.31444,-0.0195417,0.230675,0.84425
1849,604,3.31488,-0.0186953,0.229998,0.842007
1861,592,3.31202,-0.031534,0.230947,0.840107
1873,580,3.31237,-0.0275837,0.229845,0.838079
1885,568,3.31385,-0.0219915,0.227704,0.836053
1897,556,3.3139,-0.0212305,0.227018,0.833777
1909,544,3.31218,-0.0227099,0.227489,0.831787
1921,532,3.31188,-0.0312143,0.226816,0.829568
1933,520,3.31258,-0.0257194,0.225562,0.827165
1945,508,3.31331,-0.0226687,0.224026,0.824846
1957,496,3.31403,-0.027682,0.222392,0.823241
1969,484,3.31039,-0.0316692,0.223806,0.820993
1981,472,3.3118,-0.0284564,0.222159,0.818967
1993,460,3.3128,-0.0252693,0.220992,0.816668
2005,448,3.31423,-0.0194898,0.21887,0.814605
2017,436,3.3116,-0.0295162,0.219338,0.812961
2029,424,3.31204,-0.0262995,0.218153,0.810623
2041,412,3.31304,-0.0229774,0.216499,0.808606
2053,400,3.31329,-0.0220983,0.215787,0.806394
2065,388,3.31109,-0.0227152,0.216255,0.804717
2077,376,3.3116,-0.0314402,0.215062,0.802803
2089,364,3.31116,-0.0283859,0.214345,0.800134
2101,352,3.31291,-0.022504,0.212212,0.79809
2113,340,3.31063,-0.0230528,0.212672,0.796414
2125,328,3.31148,-0.0318775,0.211474,0.794521
2137,316,3.31192,-0.0261705,0.209803,0.792103
2149,304,3.31285,-0.0227979,0.209076,0.789794
2161,292,3.31107,-0.0231816,0.208588,0.788471
2173,280,3.3108,-0.0324658,0.20786,0.786223
2185,268,3.31182,-0.0291213,0.206634,0.783871
2197,256,3.30997,-0.0293969,0.206624,0.78257
2209,244,3.3105,-0.0262439,0.205401,0.780182
2221,232,3.31092,-0.0328431,0.204176,0.777893
2233,220,3.31193,-0.0309485,0.202952,0.77629
2245,208,3.30974,-0.0299447,0.202944,0.774224
2257,196,3.3111,-0.033895,0.200786,0.772197
2269,184,3.31209,-0.0220077,0.200108,0.770216
2281,172,3.31205,-0.0313118,0.199231,0.767995
2293,160,3.31071,-0.0292977,0.198774,0.766588
2305,148,3.31162,-0.0258066,0.19752,0.764231
2317,136,3.3124,-0.0238102,0.196264,0.762607
2329,124,3.30986,-0.0358831,0.196733,0.760659
2341,112,3.31099,-0.0324795,0.19548,0.758316
2353,100,3.31193,-0.0303385,0.194209,0.756702
2365,88,3.31342,-0.0215042,0.192186,0.754245
2377,76,3.31054,-0.035334,0.192494,0.752972
2389,64,3.3113,-0.0291943,0.190766,0.750543
2401,52,3.31322,-0.0226807,0.18858,0.7485
2413,40,3.30981,-0.0314057,0.1904,0.747047
2425,28,3.31061,-0.0267161,0.189112,0.745029
2437,16,3.31241,-0.0219086,0.187368,0.743338
2449,4,3.30935,-0.0369632,0.18828,0.741454
2450,3,3.30948,-0.0263227,0.188274,0.741397

File: HUST_7-1_cycle_feature_matrix.csv
cycle_number,rul,voltage,current,capacity,charge_capacity
1,1692,3.3245,-0.0172629,0.273351,0.997298
9,1684,3.31237,-0.0199887,0.278537,0.990148
17,1676,3.31286,-0.0221485,0.278076,0.989531
25,1668,3.31397,-0.0206032,0.276566,0.988383
33,1660,3.31315,-0.0220721,0.276551,0.987733
41,1652,3.31561,-0.0199549,0.275034,0.986784
49,1644,3.31523,-0.0205734,0.275024,0.986494
57,1636,3.31497,-0.0221888,0.275029,0.985827
65,1628,3.31594,-0.0200114,0.273969,0.984668
73,1620,3.31538,-0.0206664,0.273965,0.984363
81,1612,3.3157,-0.0213412,0.273962,0.984085
89,1604,3.31473,-0.0228877,0.273968,0.98348
97,1596,3.31633,-0.0201297,0.272914,0.982566
105,1588,3.31631,-0.0207438,0.27291,0.982296
113,1580,3.31533,-0.0222867,0.273364,0.981402
121,1572,3.31475,-0.0230638,0.273373,0.981122
129,1564,3.31694,-0.0201278,0.271401,0.980506
137,1556,3.31594,-0.0208867,0.272302,0.979905
145,1548,3.31588,-0.0215688,0.272729,0.979636
153,1540,3.31558,-0.022278,0.272305,0.979347
161,1532,3.31485,-0.0231087,0.272306,0.978984
169,1524,3.31649,-0.020241,0.27124,0.978088
177,1516,3.31685,-0.0209541,0.271244,0.977807
185,1508,3.31608,-0.0216613,0.271244,0.977525
193,1500,3.31508,-0.0223943,0.271689,0.976918
201,1492,3.31466,-0.0234167,0.272149,0.976249
209,1484,3.31654,-0.0203436,0.270635,0.975706
217,1476,3.31644,-0.0210789,0.270624,0.975377
225,1468,3.31592,-0.0217584,0.270621,0.975072
233,1460,3.31545,-0.0224296,0.271066,0.974505
241,1452,3.31539,-0.0233511,0.271071,0.974148
249,1444,3.31794,-0.0203907,0.269548,0.973526
257,1436,3.31649,-0.0212101,0.270093,0.972908
265,1428,3.31598,-0.0211771,0.269623,0.973196
273,1420,3.31607,-0.0218843,0.270003,0.972645
281,1412,3.31551,-0.0226914,0.270439,0.971988
289,1404,3.31507,-0.0225803,0.270421,0.971947
297,1396,3.31735,-0.0204588,0.269387,0.971034
305,1388,3.3161,-0.0211666,0.269357,0.970469
313,1380,3.31508,-0.0212821,0.269811,0.970146
321,1372,3.316,-0.0227914,0.269374,0.969862
329,1364,3.31512,-0.0235726,0.269828,0.96927
337,1356,3.31735,-0.0205631,0.268297,0.968908
345,1348,3.31657,-0.0213913,0.268307,0.968349
353,1340,3.31593,-0.0220388,0.268761,0.967816
361,1332,3.31582,-0.0228744,0.268753,0.96745
369,1324,3.31517,-0.0228954,0.268755,0.967444
377,1316,3.31731,-0.020618,0.26768,0.966298
385,1308,3.31692,-0.0215125,0.267687,0.965937
393,1300,3.31586,-0.0222839,0.268134,0.965323
401,1292,3.31573,-0.0222489,0.268134,0.965336
409,1284,3.31493,-0.0238152,0.268602,0.964455
417,1276,3.3179,-0.0200852,0.266609,0.964418
425,1268,3.31699,-0.020814,0.267058,0.963813
433,1260,3.31777,-0.0215028,0.26661,0.96384
441,1252,3.31649,-0.0230854,0.267061,0.962911
449,1244,3.31539,-0.0231185,0.267522,0.962884
457,1236,3.31723,-0.0201626,0.265985,0.961999
465,1228,3.31662,-0.0217271,0.266443,0.961102
473,1220,3.31656,-0.0224573,0.266442,0.960787
481,1212,3.31636,-0.0232067,0.266439,0.960458
489,1204,3.31553,-0.0240486,0.266895,0.959864
497,1196,3.31701,-0.0209845,0.265356,0.959284
505,1188,3.3171,-0.0218066,0.26536,0.958956
513,1180,3.31544,-0.0224973,0.265813,0.958383
521,1172,3.3156,-0.0233991,0.265813,0.95825
529,1164,3.31453,-0.0242145,0.266282,0.957427
537,1156,3.31693,-0.0212582,0.265142,0.956739
545,1148,3.31671,-0.0220113,0.264715,0.956399
553,1140,3.31608,-0.0234961,0.265167,0.95551
561,1132,3.31509,-0.0241261,0.265169,0.955262
569,1124,3.317504,-0.0211858,0.263622,0.954597
577,1116,3.31625,-0.0219839,0.264078,0.953989
585,1108,3.31575,-0.0236504,0.264554,0.953084
593,1100,3.31519,-0.0243659,0.264548,0.952774
601,1092,3.31698,-0.0213652,0.262992,0.95212
609,1084,3.31639,-0.0228852,0.263554,0.951256
617,1076,3.3159,-0.0236321,0.263455,0.950958
625,1068,3.31769,-0.0206944,0.262845,0.950008
633,1060,3.3169,-0.0220943,0.262353,0.949415
641,1052,3.31664,-0.0230515,0.262363,0.949048
649,1044,3.31569,-0.0244919,0.262823,0.948208
657,1036,3.31688,-0.0215894,0.261722,0.945946
665,1028,3.3162,-0.0231536,0.262178,0.946528
673,1020,3.31578,-0.0239743,0.26219,0.946001
681,1012,3.31711,-0.0217436,0.261092,0.944743
689,1004,3.31643,-0.0232291,0.261091,0.944144
697,996,3.31532,-0.0240137,0.261545,0.943529
705,988,3.31714,-0.0218092,0.260539,0.942278
713,980,3.31639,-0.0225522,0.260444,0.941974
721,972,3.31557,-0.0242278,0.260908,0.94102
729,964,3.31682,-0.0220362,0.259797,0.93971
737,956,3.31646,-0.0226725,0.259792,0.939457
745,948,3.31592,-0.0242913,0.259794,0.938809
753,940,3.31705,-0.0220282,0.259147,0.937254
761,932,3.31702,-0.0227576,0.258685,0.937257
769,924,3.31596,-0.0244923,0.25915,0.936285
777,916,3.31687,-0.0220429,0.258034,0.935082
785,908,3.31613,-0.0228924,0.258035,0.934743
793,900,3.31577,-0.0245523,0.258505,0.933825
801,892,3.3175,-0.0221918,0.257401,0.932619
809,884,3.31669,-0.0238452,0.257403,0.931965
817,876,3.31496,-0.0254923,0.257866,0.931032
825,868,3.31656,-0.023183,0.256763,0.929796
833,860,3.31568,-0.02411,0.25722,0.929131
841,852,3.31772,-0.022433,0.25564,0.927919
849,844,3.31666,-0.0232787,0.256104,0.927286
857,836,3.31613,-0.024891,0.256084,0.926597
865,828,3.3175,-0.0225058,0.254962,0.925351
873,820,3.31521,-0.0243314,0.255917,0.92411
881,812,3.31505,-0.0250243,0.255438,0.924111
889,804,3.31693,-0.0226878,0.254311,0.922817
897,796,3.31656,-0.024301,0.254309,0.922194
905,788,3.31778,-0.0226406,0.253194,0.920691
913,780,3.31589,-0.0244673,0.254138,0.919407
921,772,3.31477,-0.0262877,0.25461,0.918411
929,764,3.31699,-0.0237287,0.253005,0.917506
937,756,3.31629,-0.0253972,0.253004,0.916856
945,748,3.31689,-0.0232177,0.252348,0.915215
953,740,3.31645,-0.0247218,0.252349,0.914635
961,732,3.31539,-0.026477,0.252838,0.913724
969,724,3.31739,-0.0238618,0.251219,0.9128
977,716,3.31485,-0.0266219,0.252171,0.911163
985,708,3.31618,-0.0242073,0.251036,0.909894
993,700,3.31582,-0.0259186,0.251037,0.90926
1001,692,3.31662,-0.0243733,0.25038,0.907375
1009,684,3.31541,-0.0259822,0.250373,0.90698
1017,676,3.31608,-0.0238869,0.249718,0.90506
1025,668,3.31534,-0.0262815,0.250195,0.903864
1033,660,3.3165,-0.0236775,0.248559,0.90291
1041,652,3.31508,-0.0264027,0.249524,0.901299
1049,644,3.31665,-0.023767,0.247967,0.900337
1057,636,3.31484,-0.026571,0.248853,0.898686
1065,628,3.31529,-0.0247794,0.248188,0.896862
1073,620,3.31519,-0.0267374,0.248171,0.896092
1081,612,3.31545,-0.0241654,0.247013,0.894808
1089,604,3.3147,-0.0269013,0.247494,0.89349
1097,596,3.31566,-0.0252513,0.246344,0.891895
1105,588,3.31333,-0.0269768,0.246824,0.890936
1113,580,3.31538,-0.0252016,0.245658,0.889357
1121,572,3.31527,-0.0236769,0.244987,0.887401
1129,564,3.31429,-0.0265386,0.245482,0.886064
1137,556,3.31502,-0.0247864,0.244308,0.884437
1145,548,3.3131,-0.0276046,0.245305,0.882826
1153,540,3.31498,-0.0256376,0.243608,0.88035
1161,532,3.31553,-0.0241512,0.24294,0.879555
1169,524,3.31365,-0.0269168,0.243441,0.878263
1177,516,3.31449,-0.0262557,0.242759,0.875931
1185,508,3.31214,-0.0288445,0.243326,0.874677
1193,500,3.31336,-0.0271629,0.242566,0.872701
1201,492,3.31389,-0.0255864,0.241373,0.870989
1209,484,3.31239,-0.0292343,0.241874,0.869372
1217,476,3.31283,-0.0276103,0.241424,0.867355
1225,468,3.31326,-0.0270076,0.240495,0.864981
1233,460,3.31417,-0.025084,0.239289,0.863367
1241,452,3.31191,-0.0358152,0.240294,0.861443
1249,444,3.31214,-0.0342468,0.238582,0.859702
1257,436,3.31331,-0.0285255,0.236848,0.857379
1265,428,3.31144,-0.0278081,0.23686,0.855352
1273,420,3.31216,-0.0259933,0.235705,0.853686
1281,412,3.31328,-0.0298491,0.233903,0.85136
1289,404,3.31385,-0.0257042,0.232165,0.849622
1297,396,3.31145,-0.0269404,0.232662,0.847702
1305,388,3.31334,-0.0308,0.230919,0.84571
1313,380,3.31433,-0.0265196,0.228691,0.844023
1321,372,3.31177,-0.0280185,0.229187,0.842044
1329,364,3.3133,-0.0318359,0.226956,0.840049
1337,356,3.31387,-0.0277813,0.225711,0.837985
1345,348,3.31413,-0.0244049,0.224475,0.83571
1353,340,3.31252,-0.0355658,0.224473,0.834076
1361,332,3.31301,-0.0314149,0.22322,0.83202
1369,324,3.31313,-0.0280057,0.221968,0.829729
1377,316,3.31394,-0.024833,0.220709,0.827341
1385,308,3.31126,-0.0361868,0.221199,0.825386
1393,300,3.31161,-0.0329324,0.21994,0.823035
1401,292,3.31197,-0.0295227,0.218666,0.820707
1409,284,3.31292,-0.0349795,0.216901,0.819067
1417,276,3.31421,-0.0292146,0.215132,0.816653
1425,268,3.31137,-0.0305991,0.215616,0.814714
1433,260,3.31225,-0.0371033,0.213845,0.81275
1441,252,3.31351,-0.0313836,0.212077,0.810326
1449,244,3.3139,-0.0278251,0.210784,0.808014
1457,236,3.311,-0.0295691,0.211265,0.805995
1465,228,3.31214,-0.0360268,0.209485,0.804059
1473,220,3.31218,-0.0302976,0.20819,0.801296
1481,212,3.31339,-0.0265498,0.206401,0.799354
1489,204,3.3137,-0.0349327,0.205282,0.797685
1497,196,3.31131,-0.0351083,0.205573,0.795021
1505,188,3.31263,-0.0288957,0.203304,0.793008
1513,180,3.31228,-0.0383828,0.202459,0.790704
1521,172,3.31308,-0.0349677,0.201135,0.788332
1529,164,3.31388,-0.0287876,0.199335,0.785975
1537,156,3.31442,-0.035711,0.197525,0.783955
1545,148,3.31167,-0.0373417,0.197995,0.782238
1553,140,3.3124,-0.0347338,0.196655,0.779369
1561,132,3.31307,-0.0286859,0.194838,0.776943
1569,124,3.31377,-0.0354783,0.193018,0.774982
1577,116,3.31409,-0.0318634,0.192131,0.772641
1585,108,3.31526,-0.0266951,0.18984,0.769926
1593,100,3.31229,-0.0416332,0.190292,0.768346
1601,92,3.31312,-0.0352352,0.188467,0.765998
1609,84,3.31405,-0.0301207,0.186639,0.763258
1617,76,3.31323,-0.0401377,0.185721,0.760971
1625,68,3.3141,-0.0376395,0.184345,0.758297
1633,60,3.31635,-0.0282623,0.181596,0.756265
1641,52,3.31551,-0.0392994,0.180652,0.753656
1649,44,3.31607,-0.0382395,0.179247,0.751688
1657,36,3.31664,-0.0330706,0.177401,0.748943
1665,28,3.3177,-0.0276911,0.175551,0.746256
1673,20,3.31928,-0.0331162,0.173263,0.743976
1681,12,3.31874,-0.0321467,0.17227,0.741661
1689,4,3.31947,-0.0267203,0.17042,0.738966
1690,3,3.31888,-0.0278394,0.170413,0.738643