Folder: MyBatteryML/hust_correlation_analysis/matrices (part 35)

File: HUST_9-8_cycle_feature_matrix.csv
cycle_number,rul,voltage,current,capacity,charge_capacity
1,2310,3.31154,0.0185895,0.286099,1.02791
12,2299,3.30282,-0.0120167,0.298028,1.01611
23,2288,3.30518,-0.0124619,0.295553,1.02214
34,2277,3.30769,-0.0118368,0.29345,1.02354
45,2266,3.30913,-0.0112303,0.292207,1.02448
56,2255,3.30913,-0.0117675,0.291786,1.02438
67,2244,3.30905,-0.0124171,0.291787,1.02402
78,2233,3.30993,-0.0112319,0.291068,1.02258
89,2222,3.30905,-0.0125425,0.291315,1.02163
100,2211,3.31071,-0.0106529,0.29003,1.02074
111,2200,3.31006,-0.0113843,0.290434,1.02013
122,2189,3.30936,-0.0124904,0.290837,1.01931
133,2178,3.31051,-0.0106934,0.289955,1.01815
144,2167,3.31018,-0.0114131,0.289956,1.01776
155,2156,3.30972,-0.0124638,0.290372,1.01699
166,2145,3.3104,-0.0107694,0.289903,1.01557
177,2134,3.30932,-0.0114404,0.290313,1.01501
188,2123,3.30893,-0.0126367,0.290321,1.01436
199,2112,3.3082,-0.0132409,0.291131,1.01383
210,2101,3.30959,-0.0109352,0.289845,1.01292
221,2090,3.30979,-0.0120341,0.28993,1.01232
232,2079,3.30868,-0.0127405,0.29026,1.01174
243,2068,3.30792,-0.0134454,0.291082,1.01087
254,2057,3.3072,-0.0133954,0.291063,1.01085
265,2046,3.30831,-0.0116154,0.290174,1.00963
276,2035,3.30793,-0.0128488,0.290185,1.00902
287,2024,3.30738,-0.013482,0.290602,1.00847
298,2013,3.30953,-0.0109302,0.288893,1.00814
309,2002,3.30885,-0.0117308,0.289299,1.00747
320,1991,3.30804,-0.0129704,0.289729,1.00663
331,1980,3.30787,-0.0134981,0.289726,1.00635
342,1969,3.30885,-0.0110711,0.288832,1.00547
353,1958,3.30874,-0.0122223,0.288839,1.00356
364,1947,3.30834,-0.0122398,0.28883,1.00485
375,1936,3.3081,-0.0135124,0.289268,1.00401
386,1925,3.30939,-0.0111576,0.288386,1.00312
397,1914,3.30937,-0.0116896,0.288383,1.00283
408,1903,3.30877,-0.0123478,0.288802,1.00229
419,1892,3.30801,-0.0130343,0.288807,1.00217
430,1881,3.30932,-0.0110593,0.288012,1.00085
441,1870,3.30887,-0.0117558,0.288343,1.00025
452,1859,3.30858,-0.012382,0.288363,0.999989
463,1848,3.30777,-0.0131269,0.288764,0.999326
474,1837,3.3077,-0.0136981,0.28923,0.999031
485,1826,3.30901,-0.0111233,0.287155,0.998402
496,1815,3.30828,-0.011935,0.288021,0.997754
507,1804,3.3082,-0.012486,0.287871,0.997488
518,1793,3.3074,-0.0131219,0.288286,0.99692
529,1782,3.30951,-0.0111924,0.286992,0.99604
540,1771,3.30894,-0.0118923,0.287387,0.995376
551,1760,3.30859,-0.0124422,0.287416,0.995431
562,1749,3.30806,-0.01295,0.287398,0.994613
573,1738,3.30739,-0.013898,0.288252,0.993957
584,1727,3.30873,-0.0112621,0.287033,0.993391
595,1716,3.30851,-0.0125707,0.287381,0.992542
606,1705,3.30813,-0.0132265,0.287375,0.992186
617,1694,3.30705,-0.0138597,0.287807,0.991668
628,1683,3.30923,-0.0112738,0.286071,0.991288
639,1672,3.30855,-0.011929,0.286647,0.990506
650,1661,3.3076,-0.0126299,0.286921,0.990148
661,1650,3.30719,-0.0142203,0.287345,0.989087
672,1639,3.30951,-0.0113811,0.28559,0.98882
683,1628,3.30892,-0.0119733,0.286025,0.988305
694,1617,3.30812,-0.0127201,0.28645,0.987703
705,1606,3.30774,-0.0133476,0.286457,0.987421
716,1595,3.30951,-0.011314,0.285086,0.986522
727,1584,3.30844,-0.0114744,0.28555,0.986424
738,1573,3.30864,-0.0127327,0.285559,0.985539
749,1562,3.30781,-0.0135186,0.285994,0.984932
760,1551,3.30769,-0.0140369,0.285993,0.984655
771,1540,3.30858,-0.0114915,0.285103,0.983823
782,1529,3.30842,-0.0121894,0.285087,0.983416
793,1518,3.30781,-0.0134795,0.285526,0.982562
804,1507,3.30767,-0.0141479,0.285516,0.982151
815,1496,3.30895,-0.0116113,0.28464,0.981366
826,1485,3.30867,-0.0122123,0.28462,0.980993
837,1474,3.30825,-0.0135272,0.28506,0.980126
848,1463,3.30712,-0.014231,0.285494,0.979565
859,1452,3.30883,-0.0115397,0.284165,0.978964
870,1441,3.30785,-0.0129268,0.285037,0.977842
881,1430,3.30728,-0.0136911,0.285039,0.977451
892,1419,3.3092,-0.0116246,0.283699,0.97651
903,1408,3.30876,-0.0122203,0.283698,0.97621
914,1397,3.30804,-0.0130155,0.284125,0.975566
925,1386,3.30716,-0.0143132,0.284566,0.974716
936,1375,3.30825,-0.0117909,0.283673,0.97381
947,1364,3.30762,-0.0130215,0.284103,0.97145
958,1353,3.30701,-0.0137252,0.284192,0.972597
969,1342,3.30855,-0.0117849,0.283223,0.971458
980,1331,3.30767,-0.0125229,0.28406,0.97072
991,1320,3.30694,-0.0138352,0.28408,0.969908
1002,1309,3.3085,-0.0109973,0.282745,0.969374
1013,1298,3.30761,-0.0124605,0.283194,0.96845
1024,1287,3.30631,-0.0139016,0.284085,0.967317
1035,1276,3.30644,-0.0145041,0.283633,0.967189
1046,1265,3.30781,-0.0124974,0.282747,0.966051
1057,1254,3.30666,-0.0139852,0.283628,0.964844
1068,1243,3.30549,-0.0145889,0.283621,0.964519
1079,1232,3.30681,-0.0125929,0.282722,0.963331
1090,1221,3.30566,-0.0140584,0.28316,0.962345
1101,1210,3.30762,-0.0120132,0.282253,0.961156
1112,1199,3.30698,-0.0126876,0.282263,0.960839
1123,1188,3.30573,-0.0142509,0.283154,0.959619
1134,1177,3.30691,-0.0120607,0.282258,0.95852
1145,1166,3.30546,-0.013488,0.282706,0.957591
1156,1155,3.30447,-0.0149599,0.28316,0.956645
1167,1144,3.30544,-0.0128673,0.282252,0.955451
1178,1133,3.30499,-0.0143823,0.28271,0.9545
1189,1122,3.30624,-0.0122059,0.281815,0.953393
1200,1111,3.30505,-0.0136754,0.282264,0.95244
1211,1100,3.30601,-0.0115862,0.281357,0.951251
1222,1089,3.30464,-0.0137759,0.282284,0.949757
1233,1078,3.3036,-0.0152569,0.282737,0.948806
1244,1067,3.30515,-0.0129916,0.28179,0.947921
1255,1056,3.30321,-0.0145345,0.282293,0.946726
1266,1045,3.3051,-0.0123725,0.28092,0.945761
1277,1034,3.30362,-0.0146156,0.281838,0.944463
1288,1023,3.30521,-0.0126546,0.281379,0.942906
1299,1012,3.30371,-0.0138725,0.281395,0.942119
1310,1001,3.304,-0.012591,0.280941,0.94027
1321,990,3.30272,-0.0140925,0.2814,0.939302
1332,979,3.30473,-0.0118916,0.280036,0.938376
1343,968,3.30287,-0.0141244,0.280958,0.936817
1354,957,3.30142,-0.0157061,0.281425,0.935826
1365,946,3.30225,-0.0142771,0.280999,0.934073
1376,935,3.30117,-0.015922,0.281474,0.933067
1387,924,3.30254,-0.0143236,0.280556,0.931578
1398,913,3.30248,-0.0121232,0.280124,0.930162
1409,902,3.30151,-0.014422,0.280596,0.928837
1420,891,3.30211,-0.0129452,0.280173,0.9271
1431,880,3.3012,-0.0144611,0.280599,0.926377
1442,869,3.30172,-0.012962,0.279751,0.924618
1453,858,3.30098,-0.0153656,0.280227,0.923268
1464,847,3.3011,-0.0131101,0.27979,0.921826
1475,836,3.29939,-0.0163124,0.281247,0.919966
1486,825,3.30083,-0.0139963,0.279349,0.918886
1497,814,3.29902,-0.0163512,0.280328,0.917339
1508,803,3.2993,-0.0149513,0.279902,0.915499
1519,792,3.30051,-0.0134935,0.279411,0.913881
1530,781,3.29905,-0.0149957,0.279462,0.912924
1541,770,3.29894,-0.0143866,0.279707,0.910317
1552,759,3.29804,-0.0166299,0.279545,0.909464
1563,748,3.29789,-0.0151579,0.279123,0.907637
1574,737,3.29829,-0.0136611,0.278696,0.905794
1585,726,3.29706,-0.0161509,0.279203,0.904432
1596,715,3.29748,-0.0144962,0.278269,0.902849
1607,704,3.29793,-0.0130421,0.27786,0.901002
1618,693,3.29649,-0.0141942,0.278361,0.899041
1629,682,3.29605,-0.0147036,0.278461,0.897282
1640,671,3.29725,-0.0179657,0.276514,0.895193
1651,660,3.29558,-0.0163279,0.276507,0.893489
1662,649,3.29642,-0.0134918,0.275074,0.891475
1673,638,3.29733,-0.0179628,0.273642,0.889849
1684,627,3.29577,-0.0170952,0.273639,0.887799
1695,616,3.29544,-0.0156901,0.273198,0.885837
1706,605,3.29606,-0.0189971,0.271757,0.883518
1717,594,3.29755,-0.0133033,0.269813,0.88175
1728,583,3.29562,-0.0145575,0.270316,0.879744
1739,572,3.29568,-0.0198935,0.269377,0.87752
1750,561,3.29628,-0.0182854,0.2685,0.875852
1761,550,3.29517,-0.0154096,0.267943,0.873782
1772,539,3.29523,-0.0229054,0.2675,0.871592
1783,528,3.29653,-0.0158476,0.265055,0.869398
1794,517,3.29719,-0.0211918,0.264548,0.867223
1805,506,3.29713,-0.0176441,0.263177,0.865246
1816,495,3.29433,-0.0232348,0.264668,0.863362
1827,484,3.29596,-0.0159413,0.261963,0.861261
1838,473,3.29617,-0.0214306,0.261273,0.858989
1849,462,3.29674,-0.016611,0.259832,0.85679
1860,451,3.29459,-0.0156153,0.259827,0.854525
1871,440,3.2951,-0.0211846,0.258377,0.852462
1882,429,3.29525,-0.020414,0.257927,0.850301
1893,418,3.29586,-0.0217118,0.255974,0.847851
1904,407,3.29589,-0.0210182,0.255652,0.845652
1915,396,3.29701,-0.0157892,0.253574,0.843568
1926,385,3.29406,-0.0180527,0.254561,0.840975
1937,374,3.2942,-0.0215691,0.253108,0.838589
1948,363,3.29511,-0.0184973,0.251653,0.838041
1959,352,3.2954,-0.0228164,0.250209,0.833916
1970,341,3.29491,-0.0221204,0.249741,0.831725
1981,330,3.29595,-0.0169445,0.248179,0.829359
1992,319,3.29655,-0.0191923,0.246361,0.826571
2003,308,3.29393,-0.0226662,0.247319,0.824669
2014,297,3.29362,-0.0197877,0.246347,0.822337
2025,286,3.29381,-0.0240797,0.244892,0.819686
2036,275,3.29543,-0.0188368,0.242949,0.817549
2047,264,3.29532,-0.0145446,0.241978,0.814561
2058,253,3.29535,-0.013626,0.241007,0.812679
2069,242,3.29545,-0.0159302,0.239549,0.809596
2080,231,3.29616,-0.0217287,0.238212,0.807571
2091,220,3.29602,-0.0195659,0.237122,0.804996
2102,209,3.29622,-0.0164516,0.236134,0.802707
2113,198,3.29345,-0.0189017,0.237087,0.800051
2124,187,3.29379,-0.0210911,0.23515,0.797285
2135,176,3.29393,-0.0180824,0.23417,0.794988
2146,165,3.29412,-0.0158217,0.233175,0.792366
2157,154,3.29421,-0.0203576,0.231717,0.789689
2168,143,3.29407,-0.0249481,0.230246,0.786959
2179,132,3.295,-0.0195096,0.228311,0.784817
2190,121,3.29436,-0.0173015,0.227469,0.781948
2201,110,3.29456,-0.0142023,0.226803,0.779682
2212,99,3.29474,-0.0211596,0.225794,0.777053
2223,88,3.2942,-0.0211319,0.225268,0.774584
2234,77,3.29503,-0.0133747,0.223319,0.772032
2245,66,3.29472,-0.0203694,0.222318,0.769445
2256,55,3.29496,-0.0156818,0.220842,0.76671
2267,44,3.29503,-0.0228064,0.219836,0.764109
2278,33,3.29451,-0.0182668,0.218833,0.761112
2289,22,3.29469,-0.0135396,0.217351,0.758365
2300,11,3.29474,-0.019704,0.215865,0.756339
2308,3,3.29242,-0.021139,0.21633,0.754378

File: HUST_10-1_cycle_feature_matrix.csv
cycle_number,rul,voltage,current,capacity,charge_capacity
1,1704,3.32318,-0.0132871,0.278592,1.00167
9,1696,3.30587,-0.0160751,0.284579,0.994284
17,1688,3.3082,-0.0146456,0.282711,0.993348
25,1680,3.30856,-0.0160254,0.28218,0.992965
33,1672,3.30776,-0.0173091,0.282352,0.992354
41,1664,3.30939,-0.0152016,0.281044,0.991444
49,1656,3.30899,-0.015871,0.280819,0.991113
57,1648,3.30845,-0.016545,0.280815,0.990796
65,1640,3.30997,-0.0145615,0.279833,0.9896
73,1632,3.30989,-0.0152214,0.279396,0.989541
81,1624,3.30927,-0.0159762,0.27983,0.988955
89,1616,3.30945,-0.01731,0.279836,0.988358
97,1608,3.31033,-0.0146718,0.278855,0.987459
105,1600,3.3106,-0.0152402,0.278411,0.987416
113,1592,3.30989,-0.016117,0.278857,0.98681
121,1584,3.30987,-0.0167256,0.279068,0.986531
129,1576,3.3093,-0.0174048,0.278851,0.986201
137,1568,3.31143,-0.0146528,0.277436,0.985612
145,1560,3.3112,-0.0153358,0.277431,0.985285
153,1552,3.3105,-0.016098,0.277867,0.984683
161,1544,3.31034,-0.0168078,0.277872,0.984171
169,1536,3.30984,-0.017484,0.277877,0.984081
177,1528,3.31187,-0.0148292,0.276895,0.983187
185,1520,3.31143,-0.0154579,0.276893,0.982896
193,1512,3.31126,-0.0155408,0.2769,0.982872
201,1504,3.31102,-0.0162385,0.2769,0.98254
209,1496,3.31087,-0.0171017,0.276895,0.982135
217,1488,3.31021,-0.0175949,0.277333,0.981666
225,1480,3.31012,-0.0175382,0.276883,0.981897
233,1472,3.31225,-0.0147056,0.275467,0.981346
241,1464,3.31166,-0.0154812,0.2759,0.980739
249,1456,3.31163,-0.0156469,0.275902,0.980673
257,1448,3.31169,-0.0162287,0.275903,0.980407
265,1440,3.31125,-0.0168233,0.275893,0.980105
273,1432,3.31066,-0.0168387,0.275884,0.980043
281,1424,3.31071,-0.0175329,0.27588,0.979715
289,1416,3.31021,-0.0175105,0.275873,0.979713
297,1408,3.31216,-0.0147864,0.274454,0.979085
305,1400,3.31147,-0.0154756,0.274898,0.978819
313,1392,3.31203,-0.0163015,0.274897,0.978179
321,1384,3.31136,-0.0161815,0.27489,0.978217
329,1376,3.31104,-0.0169371,0.274901,0.977915
337,1368,3.3112,-0.0176572,0.274991,0.97757
345,1360,3.31044,-0.0176178,0.274889,0.977563
353,1352,3.31275,-0.0148865,0.273472,0.976941
361,1344,3.31273,-0.0155231,0.273474,0.976666
369,1336,3.312644,-0.0162238,0.273681,0.976328
377,1328,3.31181,-0.0169175,0.273902,0.975753
385,1320,3.31163,-0.0170487,0.273912,0.975726
393,1312,3.31116,-0.0177193,0.273912,0.975415
401,1304,3.31337,-0.0149301,0.272482,0.974794
409,1296,3.31333,-0.0155415,0.272485,0.974522
417,1288,3.31269,-0.0163597,0.272926,0.97392
425,1280,3.31232,-0.0170618,0.273191,0.973582
433,1272,3.31203,-0.0177468,0.272917,0.973257
441,1264,3.31358,-0.0149978,0.271934,0.9724
449,1256,3.31309,-0.0156957,0.271932,0.972074
457,1248,3.31289,-0.0157032,0.271927,0.972066
465,1240,3.31311,-0.0171835,0.271933,0.97139
473,1232,3.31229,-0.017905,0.272378,0.970842
481,1224,3.31404,-0.0151107,0.270947,0.970225
489,1216,3.31406,-0.0157431,0.270943,0.969914
497,1208,3.31374,-0.0165269,0.271043,0.969583
505,1200,3.31277,-0.0172238,0.271383,0.969001
513,1192,3.31279,-0.0171629,0.271361,0.969254
521,1184,3.31428,-0.0146145,0.269946,0.968536
529,1176,3.31394,-0.015151,0.269939,0.968029
537,1168,3.31336,-0.0157336,0.269939,0.966249
545,1160,3.31319,-0.016481,0.269933,0.967387
553,1152,3.31258,-0.0173021,0.270378,0.966798
561,1144,3.31198,-0.017972,0.270375,0.966477
569,1136,3.31398,-0.0150729,0.268942,0.965902
577,1128,3.31416,-0.0158823,0.268946,0.965537
585,1120,3.31305,-0.0166322,0.269381,0.964953
593,1112,3.31303,-0.0173885,0.269377,0.964596
601,1104,3.31252,-0.017962,0.269371,0.964308
609,1096,3.31474,-0.0152626,0.267946,0.963666
617,1088,3.31405,-0.015865,0.267943,0.963369
625,1080,3.31412,-0.0166146,0.267939,0.963019
633,1072,3.31347,-0.0174474,0.268385,0.962424
641,1064,3.31497,-0.0153335,0.267386,0.961238
649,1056,3.31472,-0.0160709,0.26781,0.960718
657,1048,3.31462,-0.0167953,0.267387,0.960561
665,1040,3.31413,-0.0175233,0.267472,0.960233
673,1032,3.31389,-0.0181024,0.267387,0.959967
681,1024,3.3161,-0.0153303,0.265954,0.959325
689,1016,3.31512,-0.0161593,0.26639,0.958713
697,1008,3.31497,-0.0168311,0.26639,0.958401
705,1000,3.31444,-0.0175782,0.266386,0.958044
713,992,3.31573,-0.0154949,0.26538,0.956814
721,984,3.31528,-0.0161323,0.265382,0.956521
729,976,3.31497,-0.0168203,0.265378,0.956199
737,968,3.31442,-0.0175492,0.265377,0.955871
745,960,3.31641,-0.0147271,0.263935,0.955219
753,952,3.31603,-0.0161241,0.264371,0.954338
761,944,3.31525,-0.0169894,0.264814,0.953726
769,936,3.31453,-0.018579,0.265251,0.952752
777,928,3.31577,-0.0155911,0.263808,0.952175
785,920,3.31557,-0.0162326,0.263808,0.951892
793,912,3.31483,-0.0178402,0.264335,0.950922
801,904,3.3166,-0.014859,0.262796,0.950323
809,896,3.31577,-0.016355,0.263232,0.949391
817,888,3.31556,-0.0170431,0.263234,0.949086
825,880,3.31417,-0.0186265,0.263672,0.948108
833,872,3.31561,-0.0156265,0.26222,0.947521
841,864,3.31517,-0.017156,0.262665,0.946605
849,856,3.31453,-0.018694,0.263498,0.945522
857,848,3.3163,-0.0157564,0.261653,0.945051
865,840,3.3149,-0.017291,0.26209,0.9441
873,832,3.31418,-0.0187666,0.262537,0.943202
881,824,3.31628,-0.0156906,0.260629,0.942849
889,816,3.31569,-0.0172543,0.261072,0.941908
897,808,3.31487,-0.0188451,0.261524,0.940975
905,800,3.31553,-0.0168342,0.260951,0.939442
913,792,3.31518,-0.017409,0.260497,0.939393
921,784,3.31477,-0.0190537,0.260951,0.938443
929,776,3.31581,-0.0167574,0.259932,0.93727
937,768,3.31484,-0.0183365,0.260378,0.936323
945,760,3.31608,-0.016257,0.259356,0.93504
953,752,3.31571,-0.0175453,0.259356,0.934462
961,744,3.31548,-0.0183782,0.259357,0.934082
969,736,3.31606,-0.0162255,0.258785,0.932612
977,728,3.3151,-0.0176718,0.258781,0.931944
985,720,3.31427,-0.0192913,0.259228,0.930993
993,712,3.31567,-0.0170705,0.258287,0.929768
1001,704,3.31418,-0.0186548,0.258648,0.92879
1009,696,3.31572,-0.0162282,0.257167,0.927869
1017,688,3.31536,-0.0178945,0.257626,0.926914
1025,680,3.31399,-0.019508,0.258073,0.925953
1033,672,3.31494,-0.0172253,0.257044,0.924728
1041,664,3.31474,-0.0187798,0.257048,0.924053
1049,656,3.31613,-0.0164144,0.255751,0.922877
1057,648,3.31427,-0.018962,0.256927,0.921057
1065,640,3.31598,-0.0168894,0.255433,0.920406
1073,632,3.31494,-0.018174,0.255891,0.919362
1081,624,3.31571,-0.0159003,0.254857,0.918124
1089,616,3.31492,-0.0183432,0.255311,0.916803
1097,608,3.31295,-0.0199535,0.256226,0.915628
1105,600,3.3146,-0.0175444,0.25473,0.914674
1113,592,3.31294,-0.0200247,0.255652,0.913115
1121,584,3.31479,-0.0176672,0.254152,0.912136
1129,576,3.3127,-0.0200424,0.255067,0.910591
1137,568,3.31397,-0.0186095,0.254032,0.908981
1145,560,3.31543,-0.0163093,0.253062,0.907722
1153,552,3.31286,-0.0187902,0.253913,0.906155
1161,544,3.3147,-0.0171748,0.252404,0.904821
1169,536,3.31326,-0.0197054,0.253337,0.903265
1177,528,3.3133,-0.0182044,0.252757,0.901379
1185,520,3.31218,-0.0198565,0.252749,0.900666
1193,512,3.31362,-0.0161196,0.251226,0.899013
1201,504,3.31367,-0.0236267,0.250648,0.896813
1209,496,3.3126,-0.0251376,0.251039,0.896138
1217,488,3.31285,-0.0204333,0.24958,0.893471
1225,480,3.31139,-0.020796,0.249576,0.892102
1233,472,3.31202,-0.0262963,0.248528,0.889845
1241,464,3.31288,-0.0226504,0.247,0.888145
1249,456,3.31442,-0.0167475,0.245004,0.886423
1257,448,3.31201,-0.0202103,0.245931,0.884471
1265,440,3.31268,-0.0257223,0.244873,0.88223
1273,432,3.31323,-0.0240942,0.244201,0.880634
1281,424,3.31176,-0.0210891,0.243335,0.878503
1289,416,3.3125,-0.0173475,0.241803,0.876834
1297,408,3.3125,-0.0250103,0.241196,0.874643
1305,400,3.31358,-0.0200483,0.239665,0.872275
1313,392,3.31124,-0.0213168,0.240122,0.870291
1321,384,3.31119,-0.0270104,0.239044,0.867979
1329,376,3.31248,-0.0241556,0.237508,0.865931
1337,368,3.31279,-0.0211322,0.236426,0.863684
1345,360,3.31344,-0.0160283,0.234883,0.861082
1353,352,3.31071,-0.0258868,0.235338,0.859364
1361,344,3.31206,-0.0228963,0.234178,0.857364
1369,336,3.31267,-0.0177059,0.232254,0.855032
1377,328,3.31232,-0.0257098,0.231621,0.852793
1385,320,3.31174,-0.0228227,0.23098,0.850221
1393,312,3.31244,-0.0185185,0.2296,0.847508
1401,304,3.31254,-0.0243692,0.228333,0.845213
1409,296,3.31032,-0.0256441,0.228784,0.843249
1417,288,3.31087,-0.0212905,0.227225,0.840529
1425,280,3.31075,-0.0271242,0.226122,0.838257
1433,272,3.31099,-0.024131,0.225018,0.83596
1441,264,3.31138,-0.0196822,0.223452,0.83325
1449,256,3.31143,-0.0255798,0.222334,0.830959
1457,248,3.31167,-0.02339,0.221264,0.828336
1465,240,3.31232,-0.0203671,0.220109,0.826055
1473,232,3.3121,-0.0159637,0.218991,0.823072
1481,224,3.3098,-0.0262514,0.218983,0.821386
1489,216,3.30933,-0.0241263,0.218303,0.818471
1497,208,3.30991,-0.0187231,0.216721,0.816082
1505,200,3.30997,-0.0255985,0.215599,0.8135
1513,192,3.30957,-0.0211531,0.214466,0.810491
1521,184,3.30984,-0.0180271,0.213327,0.808177
1529,176,3.30972,-0.0250606,0.212186,0.805549
1537,168,3.30959,-0.0205818,0.211046,0.802544
1545,160,3.31057,-0.0172731,0.209456,0.800549
1553,152,3.30942,-0.0268449,0.209201,0.797727
1561,144,3.31021,-0.02214,0.207603,0.79503
1569,136,3.31088,-0.0174601,0.20601,0.792325
1577,128,3.31059,-0.022278,0.204851,0.789356
1585,120,3.31059,-0.0190834,0.203691,0.787043
1593,112,3.30692,-0.0216447,0.20457,0.784404
1601,104,3.30674,-0.03141,0.203852,0.781873
1609,96,3.30707,-0.0281734,0.202681,0.779567
1617,88,3.30799,-0.0233412,0.201067,0.776884
1625,80,3.30755,-0.0307011,0.199886,0.774263
1633,72,3.3073,-0.0260477,0.198708,0.771237
1641,64,3.30805,-0.0225568,0.197079,0.76924
1649,56,3.30807,-0.0203232,0.196336,0.766314
1657,48,3.30813,-0.025305,0.194705,0.763619
1665,40,3.30837,-0.0229092,0.193513,0.760987
1673,32,3.30844,-0.0304234,0.192437,0.758389
1681,24,3.30917,-0.0245848,0.190673,0.755969
1689,16,3.30848,-0.0224146,0.189899,0.752991
1697,8,3.30911,-0.0298113,0.188564,0.750727
1702,3,3.30708,-0.0319459,0.188683,0.749759