Folder: MyBatteryML/hust_correlation_analysis/matrices (part 34)

File: HUST_9-6_cycle_feature_matrix.csv
cycle_number,rul,voltage,current,capacity,charge_capacity
1,1744,3.32121,0.00956507,0.262615,1.02995
9,1736,3.30907,-0.01904,0.273014,1.01542
17,1728,3.31139,-0.0200512,0.271379,1.02105
25,1720,3.31431,-0.0179196,0.269499,1.02333
33,1712,3.31473,-0.0185358,0.268197,1.02392
41,1704,3.31492,-0.0184994,0.268164,1.0239
49,1696,3.31696,-0.0160519,0.266396,1.02325
57,1688,3.3167,-0.0172657,0.266395,1.02265
65,1680,3.31575,-0.0185705,0.266771,1.02171
73,1672,3.31782,-0.0167379,0.265372,1.02076
81,1664,3.31673,-0.0188342,0.266161,1.01931
89,1656,3.31752,-0.0168332,0.265143,1.0182
97,1648,3.31645,-0.0174659,0.265521,1.01761
105,1640,3.31575,-0.0188818,0.265929,1.01674
113,1632,3.31665,-0.016958,0.264913,1.01556
121,1624,3.31612,-0.0182583,0.265302,1.01468
129,1616,3.31565,-0.0195211,0.265698,1.01383
137,1608,3.31687,-0.0176276,0.265049,1.01265
145,1600,3.31656,-0.0182688,0.265058,1.01206
153,1592,3.31454,-0.0197342,0.265864,1.01092
161,1584,3.31603,-0.0178477,0.26485,1.00976
169,1576,3.31473,-0.018408,0.265246,1.00924
177,1568,3.31414,-0.0197264,0.265641,1.00835
185,1560,3.31615,-0.0173766,0.264639,1.00744
193,1552,3.31496,-0.018469,0.265028,1.00665
201,1544,3.31436,-0.019248,0.265026,1.00627
209,1536,3.31508,-0.0173192,0.264402,1.00484
217,1528,3.31547,-0.0179882,0.264406,1.00454
225,1520,3.31465,-0.0187655,0.26481,1.00391
233,1512,3.31344,-0.0199598,0.26521,1.0031
241,1504,3.31489,-0.0175274,0.26419,1.00216
249,1496,3.31401,-0.0180684,0.264576,1.0016
257,1488,3.31307,-0.0192022,0.265366,1.00049
265,1480,3.3113,-0.0215816,0.26617,1.0001
273,1472,3.31172,-0.0220398,0.266172,0.99989
281,1464,3.31337,-0.0193121,0.264725,0.999277
289,1456,3.31336,-0.019008,0.264747,0.998245
297,1448,3.3117,-0.0203965,0.265148,0.997341
305,1440,3.31299,-0.0193786,0.264523,0.996694
313,1432,3.31314,-0.0185152,0.264131,0.996416
321,1424,3.31234,-0.0196968,0.264535,0.995351
329,1416,3.31141,-0.0222525,0.265347,0.994888
337,1408,3.31336,-0.0178356,0.263507,0.994121
345,1400,3.3127,-0.0191658,0.263917,0.993075
353,1392,3.3114,-0.0199501,0.264326,0.99264
361,1384,3.31188,-0.0205235,0.264316,0.992355
369,1376,3.31332,-0.0185972,0.263308,0.991202
377,1368,3.31233,-0.0193451,0.263708,0.99058
385,1360,3.3117,-0.0199361,0.263704,0.99027
393,1352,3.3114,-0.0207186,0.264123,0.989698
401,1344,3.31265,-0.0179858,0.262681,0.989131
409,1336,3.31265,-0.019228,0.263088,0.988302
417,1328,3.31171,-0.0200398,0.263511,0.987696
425,1320,3.31003,-0.0208296,0.263933,0.987123
433,1312,3.31307,-0.0181116,0.262473,0.986241
441,1304,3.31122,-0.0195345,0.263298,0.985292
449,1296,3.31098,-0.0201371,0.263317,0.985078
457,1288,3.31264,-0.0176159,0.26228,0.984139
465,1280,3.31184,-0.0182019,0.262271,0.983843
473,1272,3.312,-0.019602,0.262695,0.982972
481,1264,3.31052,-0.0203012,0.263117,0.982413
489,1256,3.30903,-0.0211086,0.263524,0.981764
497,1248,3.31216,-0.0184298,0.26206,0.981112
505,1240,3.31039,-0.019729,0.262474,0.980235
513,1232,3.31068,-0.0204176,0.262472,0.979921
521,1224,3.30908,-0.0211326,0.262884,0.979318
529,1216,3.31081,-0.0184186,0.261851,0.978457
537,1208,3.31019,-0.019909,0.262605,0.977549
545,1200,3.3094,-0.0205035,0.262265,0.977236
553,1192,3.31126,-0.0179307,0.261226,0.976291
561,1184,3.31025,-0.0193005,0.261658,0.975481
569,1176,3.31051,-0.0200601,0.261648,0.975088
577,1168,3.3087,-0.0206969,0.262057,0.97451
585,1160,3.31104,-0.0187933,0.26103,0.973295
593,1152,3.30915,-0.0193731,0.261456,0.97279
601,1144,3.31031,-0.0201285,0.261017,0.97266
609,1136,3.30821,-0.0216018,0.261966,0.9715
617,1128,3.31006,-0.0188397,0.260831,0.970653
625,1120,3.30928,-0.020289,0.261262,0.969759
633,1112,3.30928,-0.0210156,0.261569,0.969442
641,1104,3.30888,-0.018858,0.260638,0.968024
649,1096,3.30957,-0.019764,0.260649,0.96764
657,1088,3.30834,-0.0210885,0.261078,0.966807
665,1080,3.30801,-0.0218356,0.261079,0.966489
673,1072,3.30932,-0.019676,0.260015,0.965276
681,1064,3.308,-0.0204235,0.26045,0.964728
689,1056,3.30734,-0.0211501,0.260874,0.96412
697,1048,3.30921,-0.0189442,0.25938,0.96319
705,1040,3.30914,-0.0197121,0.259381,0.962856
713,1032,3.30698,-0.0213541,0.260169,0.961786
721,1024,3.30913,-0.018487,0.258744,0.960955
729,1016,3.30767,-0.0200487,0.259625,0.959798
737,1008,3.30693,-0.0215484,0.260061,0.958893
745,1000,3.30904,-0.0184718,0.258551,0.958321
753,992,3.30792,-0.0201335,0.258996,0.95713
761,984,3.3079,-0.0209073,0.258993,0.957033
769,976,3.30619,-0.0221784,0.259434,0.956237
777,968,3.30751,-0.0200736,0.258363,0.95498
785,960,3.30675,-0.0210822,0.258788,0.954236
793,952,3.30518,-0.0225631,0.259334,0.953185
801,944,3.30708,-0.0203365,0.258172,0.952179
809,936,3.30666,-0.0211265,0.258162,0.951831
817,928,3.30531,-0.0225426,0.258604,0.950942
825,920,3.30684,-0.0203848,0.257536,0.949748
833,912,3.30644,-0.0213493,0.257987,0.949081
841,904,3.30528,-0.0227516,0.258424,0.948206
849,896,3.30626,-0.0206599,0.257347,0.946934
857,888,3.30637,-0.0221193,0.257349,0.946306
865,880,3.30503,-0.022916,0.257866,0.945665
873,872,3.30608,-0.0206634,0.256694,0.944423
881,864,3.30524,-0.0222179,0.257159,0.943596
889,856,3.3069,-0.0200584,0.25608,0.942312
897,848,3.30633,-0.0206939,0.256449,0.942005
905,840,3.30462,-0.0223367,0.256526,0.941102
913,832,3.3063,-0.0201417,0.255445,0.939856
921,824,3.30527,-0.0216229,0.255883,0.938953
929,816,3.30462,-0.0233059,0.25634,0.937999
937,808,3.30494,-0.0209958,0.255706,0.936519
945,800,3.30387,-0.0224924,0.255707,0.935901
953,792,3.30553,-0.0202203,0.254617,0.934657
961,784,3.30459,-0.0218808,0.255066,0.933702
969,776,3.30409,-0.0227505,0.255067,0.933339
977,768,3.3058,-0.0204459,0.253976,0.932117
985,760,3.30399,-0.0220551,0.254429,0.931174
993,752,3.30248,-0.0236162,0.254865,0.930211
1001,744,3.30403,-0.0213509,0.253781,0.928991
1009,736,3.30246,-0.0229503,0.254243,0.928093
1017,728,3.303676,-0.0215664,0.253608,0.926188
1025,720,3.30375,-0.0225639,0.253602,0.925772
1033,712,3.30486,-0.0208554,0.252516,0.924329
1041,704,3.30349,-0.0224772,0.252973,0.923383
1049,696,3.30189,-0.0239764,0.253426,0.922482
1057,688,3.3032,-0.0217806,0.252315,0.921137
1065,680,3.30178,-0.0242984,0.253262,0.919663
1073,672,3.30243,-0.0219791,0.252143,0.91835
1081,664,3.30092,-0.0235693,0.252608,0.917417
1089,656,3.30335,-0.0211583,0.251025,0.916432
1097,648,3.30145,-0.0238785,0.251961,0.914801
1105,640,3.30219,-0.0213872,0.250859,0.913619
1113,632,3.30184,-0.0229057,0.250852,0.913017
1121,624,3.30271,-0.0214976,0.250217,0.911094
1129,616,3.3013,-0.0231463,0.250694,0.910199
1137,608,3.30292,-0.0215545,0.249565,0.908578
1145,600,3.30145,-0.0232776,0.250032,0.907624
1153,592,3.30149,-0.021782,0.249393,0.905719
1161,584,3.30134,-0.023505,0.249406,0.905088
1169,576,3.30165,-0.0220032,0.248742,0.903131
1177,568,3.30011,-0.0244338,0.24921,0.902103
1185,560,3.30095,-0.0219929,0.248076,0.900586
1193,552,3.2997,-0.0245481,0.248564,0.899332
1201,544,3.30055,-0.0230824,0.247909,0.897352
1209,536,3.29915,-0.0247124,0.248378,0.896426
1217,528,3.3005,-0.0232039,0.247524,0.894741
1225,520,3.29778,-0.0259044,0.248221,0.893185
1233,512,3.29906,-0.0242921,0.247079,0.891542
1241,504,3.2999,-0.0225603,0.246002,0.889906
1249,496,3.29899,-0.0252198,0.246824,0.888623
1257,488,3.2994,-0.0237428,0.245771,0.886678
1265,480,3.29666,-0.0264143,0.246751,0.885094
1273,472,3.29812,-0.0247161,0.245603,0.883477
1281,464,3.29934,-0.0231473,0.244444,0.88177
1289,456,3.29643,-0.0266599,0.245432,0.879879
1297,448,3.29707,-0.0250873,0.244779,0.87792
1305,440,3.29815,-0.0234569,0.243882,0.876238
1313,432,3.29567,-0.0260937,0.244429,0.874963
1321,424,3.29675,-0.0253469,0.243449,0.872681
1329,416,3.29752,-0.0236187,0.242287,0.871031
1337,408,3.29482,-0.0273522,0.243303,0.869077
1345,400,3.29511,-0.0265998,0.242624,0.866745
1353,392,3.29598,-0.0248408,0.241861,0.865072
1361,384,3.29674,-0.0240953,0.240787,0.86276
1369,376,3.29428,-0.0280251,0.241809,0.860751
1377,368,3.29463,-0.0262111,0.24062,0.859084
1385,360,3.29529,-0.0254088,0.239951,0.856744
1393,352,3.29508,-0.0247007,0.239276,0.854362
1401,344,3.2923,-0.028599,0.24031,0.852364
1409,336,3.29377,-0.025219,0.238592,0.849214
1417,328,3.2931,-0.0243047,0.237912,0.848055
1425,320,3.2938,-0.0295959,0.236187,0.845262
1433,312,3.29439,-0.0235469,0.234459,0.843059
1441,304,3.29405,-0.0227919,0.233764,0.840676
1449,296,3.29501,-0.0253914,0.231762,0.837998
1457,288,3.29308,-0.0265852,0.231502,0.836395
1465,280,3.29259,-0.0258669,0.230799,0.834002
1473,272,3.29221,-0.0310093,0.229578,0.831027
1481,264,3.29411,-0.0251999,0.227332,0.829018
1489,256,3.29369,-0.03241,0.226101,0.826457
1497,248,3.29351,-0.02923,0.224855,0.82404
1505,240,3.29385,-0.0242765,0.22351,0.82135
1513,232,3.29365,-0.0335461,0.222367,0.818997
1521,224,3.29436,-0.0285046,0.220618,0.816399
1529,216,3.29469,-0.0233563,0.218851,0.813765
1537,208,3.294,-0.0327932,0.218093,0.811349
1545,200,3.29525,-0.0225862,0.215325,0.8087
1553,192,3.29434,-0.0328836,0.21456,0.806069
1561,184,3.29238,-0.0329966,0.214571,0.803763
1569,176,3.29236,-0.0294991,0.213294,0.801424
1577,168,3.29291,-0.0346818,0.211524,0.798801
1585,160,3.29259,-0.0322125,0.210233,0.796094
1593,152,3.29138,-0.0326134,0.209954,0.793093
1601,144,3.29177,-0.0273828,0.208173,0.790474
1609,136,3.29178,-0.0353041,0.20687,0.787812
1617,128,3.29316,-0.0275434,0.204591,0.785134
1625,120,3.29329,-0.0343576,0.202801,0.783159
1633,112,3.29254,-0.0329268,0.201979,0.779849
1641,104,3.29348,-0.0268652,0.200186,0.777472
1649,96,3.29329,-0.0331605,0.198383,0.774525
1657,88,3.29332,-0.0305713,0.197058,0.771869
1665,80,3.29254,-0.0390509,0.196207,0.768812
1673,72,3.29349,-0.0334288,0.193915,0.766563
1681,64,3.2938,-0.0389901,0.192117,0.763947
1689,56,3.29384,-0.0365151,0.190774,0.761241
1697,48,3.2931,-0.0341808,0.189916,0.758189
1705,40,3.293412,-0.0316868,0.188545,0.75549
1713,32,3.29306,-0.0409797,0.18717,0.75254
1721,24,3.29778,-0.0244901,0.182591,0.749573
1729,16,3.2973,-0.0339647,0.181199,0.746558
1737,8,3.29755,-0.0314397,0.179812,0.744054
1742,3,3.29616,-0.0301066,0.179353,0.742237

File: HUST_9-7_cycle_feature_matrix.csv
cycle_number,rul,voltage,current,capacity,charge_capacity
1,2014,3.3039,0.0202774,0.332623,1.05434
11,2004,3.29786,-0.00867381,0.342427,1.03939
21,1994,3.30163,-0.00745638,0.338732,1.04419
31,1984,3.30254,-0.00955951,0.337245,1.04584
41,1974,3.30312,-0.00956912,0.336821,1.04618
51,1964,3.3049,-0.00793292,0.334851,1.04542
61,1954,3.30407,-0.00864037,0.335255,1.04476
71,1944,3.30576,-0.00732146,0.333725,1.0438
81,1934,3.30575,-0.00799697,0.333717,1.04334
91,1924,3.30526,-0.00956007,0.334145,1.04219
101,1914,3.30672,-0.00731619,0.333031,1.04163
111,1904,3.30569,-0.00911565,0.333876,1.04012
121,1894,3.30654,-0.00680408,0.332753,1.03958
131,1884,3.3059,-0.00791829,0.333187,1.0387
141,1874,3.30505,-0.00910114,0.334049,1.03764
151,1864,3.30589,-0.00747151,0.333351,1.0365
161,1854,3.30561,-0.00798083,0.333792,1.03468
171,1844,3.30533,-0.00904859,0.333788,1.03532
181,1834,3.30495,-0.00966379,0.334198,1.03472
191,1824,3.30613,-0.00740099,0.333104,1.0342
201,1814,3.30487,-0.00860903,0.334521,1.0331
211,1804,3.30405,-0.00926613,0.334384,1.03247
221,1794,3.3037,-0.00940907,0.334788,1.03213
231,1784,3.30366,-0.00990914,0.334774,1.03177
241,1774,3.30507,-0.00765149,0.334491,1.03105
251,1764,3.30464,-0.00924726,0.334099,1.03005
261,1754,3.30417,-0.00983573,0.334533,1.02964
271,1744,3.30488,-0.00758874,0.333426,1.02896
281,1734,3.30426,-0.00829369,0.333845,1.02828
291,1724,3.30403,-0.00937957,0.333856,1.02763
301,1714,3.30408,-0.00985332,0.334401,1.0273
311,1704,3.3051,-0.00761301,0.333179,1.02658
321,1694,3.30466,-0.00878778,0.333608,1.02566
331,1684,3.30419,-0.00941878,0.333604,1.02525
341,1674,3.30328,-0.00998158,0.334046,1.02473
351,1664,3.3047,-0.00763357,0.333493,1.02422
361,1654,3.30439,-0.00824164,0.333457,1.02369
371,1644,3.30438,-0.00871989,0.333913,1.02333
381,1634,3.30388,-0.00984277,0.333814,1.0225
391,1624,3.30524,-0.00747135,0.332698,1.022
401,1614,3.30394,-0.00818819,0.33358,1.02121
411,1604,3.30359,-0.00882827,0.333567,1.02078
421,1594,3.30363,-0.00931907,0.333211,1.02043
431,1584,3.30313,-0.00997377,0.334002,1.01987
441,1574,3.3045,-0.00768088,0.332871,1.01926
451,1564,3.30429,-0.0082071,0.332887,1.01899
461,1554,3.30309,-0.00892628,0.333756,1.01816
471,1544,3.30295,-0.0100231,0.333766,1.01749
481,1534,3.30245,-0.0106794,0.334194,1.01689
491,1524,3.30411,-0.0083124,0.333069,1.01632
501,1514,3.30373,-0.0087979,0.333073,1.01605
511,1504,3.30307,-0.00945123,0.33351,1.01546
521,1494,3.30186,-0.0101316,0.334411,1.01473
531,1484,3.303808,-0.00825297,0.332838,1.01403
541,1474,3.3033,-0.0087119,0.333299,1.01363
551,1464,3.30284,-0.00952925,0.333755,1.01296
561,1454,3.30464,-0.00704958,0.332188,1.01267
571,1444,3.30354,-0.00834904,0.333072,1.01148
581,1434,3.30297,-0.00840788,0.333067,1.01144
591,1424,3.30258,-0.00958879,0.333514,1.01054
601,1414,3.30279,-0.0100993,0.333509,1.01021
611,1404,3.30374,-0.00775626,0.332832,1.00947
621,1394,3.30336,-0.00886154,0.332822,1.00876
631,1384,3.30204,-0.0096115,0.333733,1.00799
641,1374,3.30187,-0.0101048,0.333283,1.00784
651,1364,3.30297,-0.00774977,0.332584,1.00704
661,1354,3.30329,-0.00833792,0.332592,1.0067
671,1344,3.30249,-0.00966795,0.333045,1.00571
681,1334,3.30203,-0.0101363,0.333041,1.00541
691,1324,3.30258,-0.00846344,0.332817,1.00405
701,1314,3.30187,-0.00925531,0.33327,1.0034
711,1304,3.30217,-0.00964653,0.332808,1.00332
721,1294,3.3033,-0.00731126,0.332122,1.00252
731,1284,3.30277,-0.00842428,0.332589,1.00171
741,1274,3.30229,-0.00961885,0.332575,1.00092
751,1264,3.3008,-0.0103852,0.333507,1.00016
761,1254,3.30188,-0.00853229,0.332818,0.999064
771,1244,3.30182,-0.00912509,0.332824,0.998698
781,1234,3.30132,-0.0102225,0.333284,0.997883
791,1224,3.30237,-0.00844869,0.332599,0.99672
801,1214,3.30189,-0.00910219,0.332598,0.996311
811,1204,3.30085,-0.0103808,0.333057,0.995382
821,1194,3.30171,-0.00809698,0.332372,0.994515
831,1184,3.30103,-0.00926693,0.332825,0.993613
841,1174,3.30108,-0.00982914,0.332836,0.993309
851,1164,3.3021,-0.00800196,0.332172,0.9922
861,1154,3.30123,-0.00934199,0.332627,0.991209
871,1144,3.30069,-0.0104755,0.333103,0.99039
881,1134,3.30106,-0.00811926,0.332416,0.989537
891,1124,3.30042,-0.00944277,0.332874,0.988541
901,1114,3.3004,-0.010521,0.332878,0.98791
911,1104,3.30144,-0.00807221,0.332212,0.987184
921,1094,3.30048,-0.00940788,0.33269,0.984792
931,1084,3.30003,-0.0104551,0.332669,0.985554
941,1074,3.30046,-0.00880265,0.332496,0.984193
951,1064,3.29939,-0.00997531,0.332934,0.983247
961,1054,3.29923,-0.0107104,0.332932,0.982813
971,1044,3.30039,-0.00876636,0.332261,0.981712
981,1034,3.29952,-0.0101024,0.332726,0.980741
991,1024,3.30086,-0.00812225,0.332173,0.979891
1001,1014,3.29934,-0.00951779,0.332525,0.978646
1011,1004,3.29865,-0.0108196,0.333005,0.977722
1021,994,3.30046,-0.00826724,0.331878,0.977193
1031,984,3.29919,-0.00945283,0.33234,0.976294
1041,974,3.30038,-0.00818068,0.332245,0.974822
1051,964,3.29861,-0.00901879,0.332631,0.973979
1061,954,3.29789,-0.0108552,0.33311,0.972729
1071,944,3.29961,-0.00892546,0.331963,0.971773
1081,934,3.29868,-0.0101657,0.332447,0.970875
1091,924,3.29935,-0.0083039,0.331791,0.969752
1101,914,3.29782,-0.00973173,0.332755,0.968548
1111,904,3.29762,-0.0108884,0.332757,0.967868
1121,894,3.29833,-0.00962686,0.332575,0.966175
1131,884,3.29741,-0.0108661,0.332569,0.965433
1141,874,3.29761,-0.00920549,0.332405,0.963977
1151,864,3.2973,-0.0104636,0.332389,0.963471
1161,854,3.29821,-0.00856715,0.332223,0.961925
1171,844,3.29706,-0.0104236,0.332706,0.960654
1181,834,3.29743,-0.00855871,0.332025,0.959394
1191,824,3.29691,-0.00986285,0.332529,0.958519
1201,814,3.29788,-0.00855082,0.331858,0.956961
1211,804,3.29645,-0.00996834,0.332353,0.955952
1221,794,3.29692,-0.00866829,0.332191,0.954273
1231,784,3.29603,-0.0100742,0.332687,0.95327
1241,774,3.29693,-0.00856438,0.332035,0.951891
1251,764,3.29524,-0.0107041,0.333038,0.950301
1261,754,3.29701,-0.00862556,0.33149,0.949384
1271,744,3.29539,-0.0106489,0.332969,0.947739
1281,734,3.29536,-0.00945258,0.332746,0.946123
1291,724,3.29511,-0.0107418,0.332772,0.945439
1301,714,3.29541,-0.00963783,0.332611,0.943598
1311,704,3.29339,-0.0118424,0.333616,0.941938
1321,694,3.2946,-0.0103655,0.332981,0.94053
1331,684,3.29518,-0.00873126,0.332311,0.939118
1341,674,3.29341,-0.0104858,0.33334,0.937752
1351,664,3.29467,-0.00890124,0.332685,0.936344
1361,654,3.29242,-0.0110837,0.33371,0.93472
1371,644,3.29381,-0.00969842,0.333082,0.933238
1381,634,3.29463,-0.00883227,0.332431,0.931395
1391,624,3.29167,-0.0111851,0.333997,0.929545
1401,614,3.29266,-0.00981885,0.333356,0.927993
1411,604,3.29124,-0.011821,0.334454,0.926676
1421,594,3.2916,-0.0105258,0.333764,0.924697
1431,584,3.2921,-0.00922369,0.333121,0.923311
1441,574,3.29093,-0.0112979,0.333654,0.92197
1451,564,3.29132,-0.0105889,0.333551,0.919866
1461,554,3.29099,-0.00935575,0.333945,0.918053
1471,544,3.28939,-0.0121521,0.334527,0.916165
1481,534,3.28995,-0.0113406,0.333906,0.914273
1491,524,3.28985,-0.0100752,0.333812,0.912451
1501,514,3.29075,-0.00865516,0.333241,0.910888
1511,504,3.28844,-0.0115024,0.334261,0.908949
1521,494,3.28807,-0.0111116,0.334731,0.906454
1531,484,3.28919,-0.0103046,0.334107,0.904527
1541,474,3.28972,-0.00888136,0.33348,0.90294
1551,464,3.28736,-0.0118338,0.334581,0.90096
1561,454,3.28655,-0.0112232,0.334605,0.89854
1571,444,3.28741,-0.0104717,0.334464,0.896595
1581,434,3.28846,-0.013307,0.332724,0.894575
1591,424,3.28858,-0.00791355,0.331534,0.891546
1601,414,3.28837,-0.00751009,0.3315,0.889255
1611,404,3.28577,-0.0164833,0.33204,0.886999
1621,394,3.28606,-0.0121278,0.330854,0.88463
1631,384,3.28654,-0.0168555,0.329679,0.882698
1641,374,3.28754,-0.00929288,0.327384,0.879889
1651,364,3.28739,-0.0142206,0.326761,0.877656
1661,354,3.28708,-0.0123294,0.326126,0.87501
1671,344,3.28721,-0.00800853,0.32496,0.872873
1681,334,3.28782,-0.0116868,0.323792,0.869997
1691,324,3.28729,-0.0155325,0.322599,0.867246
1701,314,3.28746,-0.0117027,0.321427,0.864582
1711,304,3.2874,-0.00801679,0.320268,0.861854
1721,294,3.28777,-0.0117052,0.319099,0.859229
1731,284,3.28766,-0.0155197,0.31792,0.856501
1741,274,3.28761,-0.0117734,0.316754,0.853777
1751,264,3.28743,-0.00995531,0.316637,0.85114
1761,254,3.28765,-0.0136656,0.314982,0.848512
1771,244,3.28736,-0.00876281,0.31383,0.845144
1781,234,3.28681,-0.0145876,0.313214,0.842504
1791,224,3.28694,-0.0126499,0.312587,0.839874
1801,214,3.28733,-0.0106794,0.309777,0.836873
1811,204,3.28614,-0.0115598,0.31026,0.833772
1821,194,3.28545,-0.017525,0.309648,0.831128
1831,184,3.28645,-0.00962395,0.307396,0.828259
1841,174,3.28561,-0.0162117,0.306794,0.82532
1851,164,3.28455,-0.0144643,0.306716,0.82242
1861,154,3.28604,-0.0162941,0.304001,0.819802
1871,144,3.28499,-0.0136086,0.303388,0.81631
1881,134,3.28663,-0.0073302,0.302093,0.813695
1891,124,3.28705,-0.00807799,0.299871,0.810669
1901,114,3.28555,-0.0147783,0.299805,0.807311
1911,104,3.28517,-0.0129528,0.299189,0.804606
1921,94,3.28618,-0.0117318,0.295924,0.801114
1931,84,3.28496,-0.00814018,0.294775,0.798196
1941,74,3.28465,-0.0129311,0.293621,0.795084
1951,64,3.28304,-0.011298,0.294063,0.792196
1961,54,3.28407,-0.0159213,0.292867,0.789275
1971,44,3.28415,-0.0161904,0.290173,0.786147
1981,34,3.28265,-0.016342,0.290563,0.78359
1991,24,3.28282,-0.0171009,0.288365,0.78026
2001,14,3.28094,-0.0160242,0.28881,0.777044
2011,4,3.28121,-0.017928,0.286175,0.77441
2012,3,3.28009,-0.0188238,0.286617,0.773831