Folder: MyBatteryML/hust_correlation_analysis/matrices (part 38)

File: HUST_10-6_cycle_feature_matrix.csv
cycle_number,rul,voltage,current,capacity,charge_capacity
1,2287,3.32202,-0.00701957,0.282302,1.0664
12,2276,3.30865,-0.0112554,0.28796,1.0585
23,2265,3.30983,-0.0106853,0.28673,1.05667
34,2254,3.311,-0.00911365,0.28547,1.05559
45,2243,3.30976,-0.0109639,0.286197,1.05406
56,2232,3.31125,-0.0092094,0.284958,1.05316
67,2221,3.31095,-0.0103384,0.28496,1.05248
78,2210,3.31205,-0.0092393,0.284102,1.05104
89,2199,3.31183,-0.00982339,0.284101,1.05071
100,2188,3.31139,-0.0108812,0.284107,1.05035
111,2177,3.31225,-0.00928093,0.283243,1.04893
122,2166,3.31194,-0.00981288,0.283521,1.04859
133,2155,3.3117,-0.0109237,0.283244,1.04795
144,2144,3.31263,-0.00917484,0.282386,1.0469
155,2133,3.31242,-0.00978971,0.282389,1.04652
166,2122,3.312,-0.0109521,0.282961,1.04567
177,2111,3.31168,-0.0115311,0.282751,1.04529
188,2100,3.31246,-0.00932563,0.281888,1.04448
199,2089,3.31271,-0.00983989,0.281519,1.04434
210,2078,3.31242,-0.0103425,0.281518,1.04406
221,2067,3.31174,-0.0104984,0.281859,1.04368
232,2056,3.31159,-0.0111886,0.281848,1.04321
243,2045,3.31122,-0.0117036,0.282039,1.04288
254,2034,3.31317,-0.0099418,0.28026,1.0409
265,2023,3.31262,-0.00989028,0.280252,1.04226
276,2012,3.31272,-0.0110769,0.280271,1.04163
287,2001,3.31246,-0.0117383,0.280254,1.04117
298,1990,3.31407,-0.00936109,0.27904,1.04071
309,1979,3.31393,-0.00990829,0.279286,1.04034
320,1968,3.31377,-0.0109826,0.279323,1.03974
331,1957,3.31317,-0.0110895,0.279036,1.03966
342,1946,3.31465,-0.00937332,0.27818,1.03859
353,1935,3.3147,-0.00983268,0.27801,1.03849
364,1924,3.31393,-0.0104899,0.278186,1.03795
375,1913,3.31417,-0.0110188,0.277817,1.03779
386,1902,3.31417,-0.011508,0.278081,1.03753
397,1891,3.31565,-0.00918347,0.276853,1.03698
408,1880,3.31452,-0.0105237,0.277333,1.03582
419,1869,3.31514,-0.0104227,0.27659,1.0362
430,1858,3.31489,-0.010996,0.276583,1.03583
441,1847,3.31415,-0.0116503,0.276944,1.03525
452,1836,3.3157,-0.00939043,0.275718,1.03466
463,1825,3.31553,-0.0105459,0.275518,1.03395
474,1814,3.31544,-0.0110629,0.275726,1.03369
485,1803,3.31512,-0.0115719,0.275715,1.03334
496,1792,3.31608,-0.00940773,0.274491,1.03267
507,1781,3.3162,-0.00989893,0.274489,1.03239
518,1770,3.31607,-0.0110349,0.274861,1.03155
529,1759,3.31545,-0.0116707,0.274863,1.03118
540,1748,3.31725,-0.00929561,0.273633,1.03064
551,1737,3.3168,-0.0099162,0.273634,1.03027
562,1726,3.31662,-0.0110578,0.273633,1.02957
573,1715,3.31624,-0.0115793,0.273632,1.02924
584,1704,3.31781,-0.00929518,0.272394,1.02862
595,1693,3.31761,-0.00991791,0.272397,1.02826
606,1682,3.31736,-0.0105177,0.272393,1.02813
617,1671,3.31658,-0.011768,0.272758,1.02696
628,1660,3.31872,-0.00923419,0.271169,1.02669
639,1649,3.31781,-0.00989032,0.271781,1.02613
650,1638,3.31791,-0.0110074,0.271534,1.02545
661,1627,3.31675,-0.0112009,0.271877,1.02509
672,1616,3.31889,-0.00933396,0.270295,1.02445
683,1605,3.31792,-0.0100334,0.270653,1.02383
694,1594,3.31849,-0.0110226,0.270299,1.02342
705,1583,3.31738,-0.0117554,0.270656,1.02277
716,1572,3.31928,-0.0093611,0.269502,1.0222
727,1561,3.31826,-0.0106551,0.269781,1.02127
738,1550,3.31865,-0.0110829,0.269425,1.02118
749,1539,3.3198,-0.00943371,0.268561,1.02004
760,1528,3.31895,-0.0100361,0.268923,1.01952
771,1517,3.31912,-0.0111335,0.268925,1.01884
782,1506,3.31804,-0.0120192,0.26937,1.01814
793,1495,3.31985,-0.00997148,0.268047,1.01733
804,1484,3.31949,-0.0105408,0.268052,1.01701
815,1473,3.3187,-0.0112345,0.268033,1.01651
826,1462,3.32004,-0.00947976,0.267173,1.01543
837,1451,3.31945,-0.010085,0.267353,1.01505
848,1440,3.31953,-0.0111433,0.267172,1.01297
859,1429,3.31899,-0.0118278,0.267167,1.01397
870,1418,3.3199,-0.0100632,0.2663,1.01288
881,1407,3.31937,-0.0106903,0.266659,1.01231
892,1396,3.31875,-0.0118877,0.267015,1.01167
903,1385,3.32057,-0.00949813,0.26543,1.01104
914,1374,3.3202,-0.0106851,0.265795,1.01017
925,1363,3.31947,-0.0113846,0.265784,1.00971
936,1352,3.32115,-0.00951083,0.264563,1.00885
947,1341,3.3201,-0.0101538,0.264912,1.00825
958,1330,3.31924,-0.0115064,0.26527,1.00724
969,1319,3.32024,-0.00971107,0.264389,1.00611
980,1308,3.32047,-0.0102184,0.26403,1.00597
991,1297,3.31938,-0.011477,0.264753,1.00488
1002,1286,3.31963,-0.0120407,0.264389,1.00468
1013,1275,3.32054,-0.0102478,0.263522,1.0036
1024,1264,3.31975,-0.0115045,0.264062,1.00265
1035,1253,3.32081,-0.00965507,0.263282,1.00156
1046,1242,3.3206,-0.0102496,0.263002,1.00119
1057,1231,3.31971,-0.0120145,0.263548,0.999961
1068,1220,3.32102,-0.00967772,0.262125,0.999317
1079,1209,3.32025,-0.0109485,0.26249,0.998393
1090,1198,3.31986,-0.0120895,0.262852,0.997531
1101,1187,3.32111,-0.0102413,0.261695,0.996607
1112,1176,3.32015,-0.011618,0.262016,0.995613
1123,1165,3.32124,-0.00965596,0.261094,0.994555
1134,1154,3.32043,-0.0104214,0.261087,0.994047
1145,1143,3.31981,-0.0116869,0.261382,0.993132
1156,1132,3.32033,-0.0104394,0.260942,0.991505
1167,1121,3.32029,-0.0110448,0.260561,0.991234
1178,1110,3.32055,-0.00989407,0.260058,0.98957
1189,1099,3.32016,-0.0110853,0.260045,0.988817
1200,1088,3.31898,-0.0123777,0.260416,0.987889
1211,1077,3.31946,-0.0106225,0.259655,0.986527
1222,1066,3.31922,-0.0117649,0.259904,0.985881
1233,1055,3.31977,-0.0106231,0.259391,0.984171
1244,1044,3.31886,-0.011869,0.259763,0.983268
1255,1033,3.31987,-0.0105039,0.258887,0.981861
1266,1022,3.31894,-0.0118523,0.259254,0.980888
1277,1011,3.31912,-0.0106577,0.25875,0.979214
1288,1000,3.31856,-0.0118382,0.258739,0.978471
1299,989,3.31983,-0.010571,0.257862,0.977008
1310,978,3.31857,-0.0119365,0.258209,0.975947
1321,967,3.31824,-0.0107846,0.258077,0.974081
1332,956,3.31679,-0.0127475,0.258811,0.972531
1343,945,3.31836,-0.010802,0.257553,0.971606
1354,934,3.31868,-0.0102387,0.257047,0.969538
1365,923,3.31684,-0.0122502,0.257797,0.968019
1376,912,3.31722,-0.010981,0.257283,0.966317
1387,901,3.3167,-0.0121995,0.257272,0.965565
1398,890,3.31699,-0.00942525,0.256374,0.963623
1409,879,3.31786,-0.0129442,0.255115,0.962013
1420,868,3.31581,-0.0140477,0.255871,0.959777
1431,857,3.31661,-0.0111188,0.254599,0.958111
1442,846,3.31638,-0.0138078,0.253709,0.955544
1453,835,3.31536,-0.014679,0.25371,0.953774
1464,824,3.31631,-0.0101104,0.252065,0.951933
1475,813,3.31548,-0.0160744,0.251907,0.949643
1486,802,3.31461,-0.016459,0.251908,0.948152
1497,791,3.31505,-0.0120407,0.250623,0.945994
1508,780,3.31549,-0.0168337,0.249742,0.943567
1519,769,3.31646,-0.0144525,0.248465,0.941538
1530,758,3.31643,-0.0105534,0.247579,0.938993
1541,747,3.3143,-0.0181619,0.247949,0.936999
1552,736,3.31483,-0.0176425,0.24744,0.934952
1563,725,3.31511,-0.0135872,0.246155,0.932557
1574,714,3.31512,-0.0113134,0.245251,0.930285
1585,703,3.3152,-0.016408,0.24473,0.927547
1596,692,3.31599,-0.0123052,0.243079,0.925345
1607,681,3.31335,-0.0135413,0.243818,0.923036
1618,670,3.31372,-0.016833,0.242537,0.920329
1629,659,3.31383,-0.0163283,0.242009,0.918213
1640,648,3.31407,-0.0121364,0.240732,0.915888
1651,637,3.3139,-0.0173108,0.240102,0.913285
1662,626,3.31396,-0.0157581,0.239296,0.91047
1673,615,3.31393,-0.0116195,0.238012,0.908088
1684,604,3.3148,-0.0149164,0.236366,0.905576
1695,593,3.3147,-0.0143586,0.23583,0.903495
1706,582,3.31454,-0.0127428,0.235293,0.900692
1717,571,3.31463,-0.0161936,0.234016,0.897974
1728,560,3.31428,-0.0139206,0.233471,0.895503
1739,549,3.3124,-0.0139054,0.233468,0.892964
1750,538,3.31242,-0.0191831,0.232555,0.890388
1761,527,3.31248,-0.0167995,0.231635,0.888108
1772,516,3.31291,-0.0132156,0.230356,0.885416
1783,505,3.31245,-0.018659,0.229805,0.882576
1794,494,3.31346,-0.0168317,0.228681,0.880257
1805,483,3.31351,-0.0125424,0.227237,0.877841
1816,472,3.31293,-0.0180429,0.226691,0.875041
1827,461,3.3133,-0.0162007,0.225776,0.872511
1838,450,3.31354,-0.0119209,0.224484,0.870094
1849,439,3.31275,-0.0181041,0.223935,0.866972
1860,428,3.31268,-0.0164712,0.223013,0.86432
1871,417,3.31316,-0.0139605,0.221812,0.862056
1882,406,3.31397,-0.0113317,0.220793,0.859827
1893,395,3.31325,-0.0168911,0.220227,0.857261
1904,384,3.31278,-0.0134064,0.2193,0.854243
1915,373,3.31322,-0.011625,0.218376,0.851653
1926,362,3.31134,-0.0127587,0.218736,0.849631
1937,351,3.31417,-0.0144697,0.216156,0.847104
1948,340,3.31129,-0.014509,0.216514,0.844353
1959,329,3.31106,-0.0129441,0.215941,0.841447
1970,318,3.31139,-0.0194966,0.215013,0.839685
1981,307,3.31122,-0.0158122,0.214075,0.836729
1992,296,3.31157,-0.0120658,0.212778,0.833944
2003,285,3.31158,-0.0170794,0.211846,0.83171
2014,274,3.31166,-0.0171759,0.211272,0.82927
2025,263,3.31203,-0.0189438,0.209739,0.826409
2036,252,3.31186,-0.0183168,0.209028,0.82431
2047,241,3.31156,-0.0146985,0.208086,0.821265
2058,230,3.31276,-0.0107662,0.206437,0.81878
2069,219,3.31246,-0.0177581,0.205847,0.816698
2080,208,3.31235,-0.0139314,0.204908,0.813771
2091,197,3.31284,-0.010026,0.203607,0.811044
2102,186,3.31279,-0.0158453,0.202657,0.808429
2113,175,3.31295,-0.0112936,0.20136,0.806013
2124,164,3.31093,-0.0132156,0.201646,0.803622
2135,153,3.31013,-0.0204818,0.20147,0.801336
2146,142,3.31099,-0.0152931,0.199816,0.798104
2157,131,3.31095,-0.0126244,0.198861,0.795835
2168,120,3.31094,-0.0186242,0.197914,0.793238
2179,109,3.31126,-0.015857,0.196962,0.791049
2190,98,3.3116,-0.0118554,0.195649,0.788271
2201,87,3.3113,-0.0199149,0.195045,0.785852
2212,76,3.31172,-0.0151432,0.19373,0.783422
2223,65,3.31177,-0.0132141,0.192771,0.780807
2234,54,3.31145,-0.019302,0.192447,0.778076
2245,43,3.3117,-0.0165961,0.191203,0.775808
2256,32,3.31212,-0.0125771,0.189887,0.773007
2267,21,3.31202,-0.0186593,0.189035,0.770493
2278,10,3.30977,-0.0198664,0.18927,0.768457
2285,3,3.31079,-0.018277,0.188303,0.766959

File: HUST_10-7_cycle_feature_matrix.csv
cycle_number,rul,voltage,current,capacity,charge_capacity
1,1785,3.31211,0.0227624,0.272211,1.05144
10,1776,3.30368,-0.0126401,0.283571,1.0319
19,1767,3.30693,-0.0124497,0.281179,1.0384
28,1758,3.31009,-0.0106246,0.27862,1.04078
37,1749,3.31036,-0.0124961,0.278385,1.04229
46,1740,3.31308,-0.00909742,0.276109,1.04298
55,1731,3.3125,-0.0102383,0.276109,1.04226
64,1722,3.31245,-0.0113709,0.276107,1.04154
73,1713,3.31401,-0.00956353,0.274553,1.0409
82,1704,3.31372,-0.0107833,0.274905,1.03998
91,1695,3.31277,-0.0118724,0.275346,1.03912
100,1686,3.31394,-0.00963613,0.274055,1.03854
109,1677,3.31302,-0.0108113,0.274408,1.03763
118,1668,3.31315,-0.011832,0.274408,1.03697
127,1659,3.31435,-0.0102112,0.273558,1.03583
136,1650,3.31401,-0.0106638,0.273564,1.03557
145,1641,3.31329,-0.0118554,0.273915,1.03463
154,1632,3.31442,-0.00960833,0.273064,1.03388
163,1623,3.31469,-0.0106123,0.273199,1.03307
172,1614,3.31369,-0.0117627,0.273772,1.03218
181,1605,3.3147,-0.00961121,0.272918,1.03134
190,1596,3.31384,-0.0102535,0.273271,1.03076
199,1587,3.31334,-0.0109141,0.273629,1.03017
208,1578,3.3135,-0.0119226,0.273629,1.02954
217,1569,3.31277,-0.0120634,0.27398,1.02926
226,1560,3.31245,-0.0126438,0.274319,1.02863
235,1551,3.31325,-0.010636,0.273473,1.02773
244,1542,3.31254,-0.0112395,0.274114,1.02718
253,1533,3.31217,-0.0122005,0.273444,1.02679
262,1524,3.31311,-0.00997512,0.272624,1.026
271,1515,3.31307,-0.0110281,0.272714,1.02535
280,1506,3.31241,-0.0116743,0.272986,1.02479
289,1497,3.31136,-0.0123697,0.27352,1.02417
298,1488,3.31328,-0.0105051,0.272134,1.02334
307,1479,3.31308,-0.0110813,0.27249,1.02279
316,1470,3.31232,-0.0117015,0.272493,1.02242
325,1461,3.31378,-0.00996576,0.271637,1.02131
334,1452,3.31347,-0.0105712,0.271997,1.02076
343,1443,3.31301,-0.0110546,0.272002,1.02049
352,1434,3.31235,-0.0116636,0.272363,1.01993
361,1425,3.31386,-0.00985268,0.271149,1.01904
370,1416,3.31284,-0.0104313,0.27151,1.01852
379,1407,3.31238,-0.0111099,0.272096,1.01789
388,1398,3.31261,-0.0116402,0.271876,1.01761
397,1389,3.31395,-0.00917467,0.270657,1.01711
406,1380,3.3133,-0.00983644,0.271018,1.01652
415,1371,3.31297,-0.0109469,0.271384,1.01569
424,1362,3.31212,-0.0111058,0.271373,1.01555
433,1353,3.31172,-0.0122787,0.271736,1.01463
442,1344,3.31369,-0.00994421,0.270514,1.01405
451,1335,3.31302,-0.010663,0.270873,1.01342
460,1326,3.312,-0.0111398,0.271243,1.01298
469,1317,3.31181,-0.0117889,0.271243,1.01258
478,1308,3.31277,-0.0100044,0.270387,1.01149
487,1299,3.3129,-0.0105754,0.27039,1.01115
496,1290,3.31261,-0.0112892,0.270747,1.0105
505,1281,3.3112,-0.0123917,0.271123,1.00971
514,1272,3.313,-0.00942302,0.269893,1.00947
523,1263,3.31271,-0.0106402,0.270265,1.00857
532,1254,3.31192,-0.0111696,0.270636,1.00808
541,1245,3.3113,-0.0123912,0.270998,1.00716
550,1236,3.31244,-0.00995895,0.269766,1.00659
559,1227,3.31272,-0.0105294,0.269766,1.00624
568,1218,3.31169,-0.0116922,0.270133,1.00535
577,1209,3.31081,-0.0124301,0.270503,1.00473
586,1200,3.313,-0.0100256,0.269269,1.00416
595,1191,3.31174,-0.0107299,0.269637,1.00356
604,1182,3.31096,-0.0119304,0.270008,1.00265
613,1173,3.31095,-0.0124572,0.270004,1.00232
622,1164,3.31203,-0.0100835,0.269147,1.00158
631,1155,3.31133,-0.011361,0.26952,1.00064
640,1146,3.31124,-0.0120091,0.269516,1.0002
649,1137,3.31209,-0.010148,0.268659,0.999254
658,1128,3.31149,-0.0112641,0.269029,0.998303
667,1119,3.31131,-0.012086,0.269024,0.997782
676,1110,3.31215,-0.00960629,0.268163,0.997084
685,1101,3.31131,-0.0109419,0.268754,0.996096
694,1092,3.311,-0.0114412,0.26853,0.995776
703,1083,3.30982,-0.0126807,0.269286,0.994533
712,1074,3.31182,-0.0108162,0.26804,0.993681
721,1065,3.31058,-0.0116035,0.268418,0.993144
730,1056,3.30984,-0.0129503,0.268789,0.992152
739,1047,3.31115,-0.0103464,0.267633,0.991699
748,1038,3.31077,-0.0115484,0.26811,0.990819
757,1029,3.30966,-0.0128652,0.268307,0.989824
766,1020,3.31006,-0.0109945,0.26817,0.988758
775,1011,3.31084,-0.00907374,0.267007,0.987672
784,1002,3.31091,-0.00967069,0.267006,0.987317
793,993,3.31089,-0.0109876,0.267164,0.986185
802,984,3.31045,-0.00914817,0.266894,0.98503
811,975,3.31117,-0.00979398,0.266465,0.984632
820,966,3.30991,-0.0111667,0.266921,0.983656
829,957,3.309558,-0.0123483,0.267131,0.982929
838,948,3.31092,-0.0103629,0.265962,0.981841
847,939,3.30928,-0.0118883,0.266732,0.98062
856,930,3.30963,-0.0130355,0.266729,0.979931
865,921,3.30965,-0.011064,0.266252,0.978721
874,912,3.30914,-0.0124977,0.266635,0.977708
883,903,3.30886,-0.0130497,0.2662,0.977518
892,894,3.30913,-0.0117999,0.265759,0.975854
901,885,3.30869,-0.0130978,0.266142,0.974923
910,876,3.30962,-0.0107317,0.26527,0.974058
919,867,3.30883,-0.0125888,0.265736,0.972814
928,858,3.30959,-0.0107115,0.264789,0.971663
937,849,3.30868,-0.0118329,0.265177,0.970841
946,840,3.30777,-0.013194,0.265562,0.969875
955,831,3.30904,-0.0114197,0.26469,0.968659
964,822,3.30885,-0.00995277,0.264239,0.96725
973,813,3.30934,-0.00744485,0.263535,0.966442
982,804,3.30815,-0.0127672,0.26459,0.965246
991,795,3.30826,-0.0108094,0.264409,0.963968
1000,786,3.30694,-0.0122767,0.264496,0.962923
1009,777,3.30726,-0.0136068,0.264491,0.962143
1018,768,3.30769,-0.0122974,0.263845,0.960491
1027,759,3.30635,-0.0136164,0.26441,0.959554
1036,750,3.30712,-0.0116166,0.263534,0.958434
1045,741,3.30644,-0.0134924,0.263931,0.957202
1054,732,3.30766,-0.0115886,0.263052,0.956009
1063,723,3.30578,-0.0138041,0.263845,0.954396
1072,714,3.30719,-0.0117005,0.262568,0.953491
1081,705,3.30521,-0.0130774,0.263362,0.952355
1090,696,3.30634,-0.0116961,0.262483,0.950858
1099,687,3.30464,-0.013812,0.263284,0.949314
1108,678,3.30588,-0.0125443,0.262404,0.947746
1117,669,3.30693,-0.0104715,0.261525,0.946633
1126,660,3.30492,-0.0132467,0.262734,0.944558
1135,651,3.30638,-0.0111455,0.261445,0.943605
1144,642,3.30464,-0.0133295,0.262256,0.94205
1153,633,3.30558,-0.0119017,0.261441,0.940545
1162,624,3.303595,-0.0141316,0.262188,0.938954
1171,615,3.30466,-0.0127203,0.261298,0.937418
1180,606,3.30468,-0.0115208,0.260823,0.935602
1189,597,3.3036,-0.0130117,0.261228,0.934601
1198,588,3.30415,-0.0123143,0.260767,0.932542
1207,579,3.30238,-0.0142726,0.261176,0.93128
1216,570,3.3031,-0.0130232,0.260284,0.929633
1225,561,3.30275,-0.011773,0.259807,0.927816
1234,552,3.30141,-0.0146097,0.260643,0.925928
1243,543,3.3015,-0.0133063,0.260172,0.924143
1252,534,3.30261,-0.0101648,0.25886,0.922461
1261,525,3.3028,-0.0165823,0.258395,0.920386
1270,516,3.30028,-0.0194861,0.259231,0.91843
1279,507,3.30285,-0.00903491,0.25618,0.916425
1288,498,3.30264,-0.00644458,0.255456,0.914233
1297,489,3.30283,-0.0129842,0.254879,0.912095
1306,480,3.30122,-0.0122133,0.254875,0.909993
1315,471,3.30131,-0.00601895,0.254089,0.907818
1324,462,3.30153,-0.0100245,0.252769,0.906162
1333,453,3.30068,-0.0119317,0.25259,0.903318
1342,444,3.30297,-0.0075188,0.249724,0.901
1351,435,3.30308,-0.00495719,0.248818,0.89877
1360,426,3.30104,-0.00615317,0.24923,0.896703
1369,417,3.3006,-0.0114227,0.248335,0.894246
1378,408,3.30065,-0.0119634,0.247328,0.89243
1387,399,3.30232,-0.00948329,0.246037,0.890155
1396,390,3.30067,-0.0151099,0.245933,0.88733
1405,381,3.29993,-0.0160404,0.245545,0.885583
1414,372,3.29926,-0.0156102,0.245463,0.883142
1423,363,3.30096,-0.0174207,0.243574,0.880359
1432,354,3.30092,-0.0129564,0.242477,0.878062
1441,345,3.30011,-0.014939,0.242176,0.875612
1450,336,3.30049,-0.0159143,0.240448,0.873236
1459,327,3.30083,-0.0123097,0.239295,0.870428
1468,318,3.30104,-0.00966778,0.238543,0.868208
1477,309,3.29715,-0.0155475,0.240014,0.865749
1486,300,3.29867,-0.0147339,0.23746,0.863374
1495,291,3.29852,-0.0212787,0.237131,0.860193
1504,282,3.29756,-0.0206284,0.236621,0.858072
1513,273,3.29844,-0.0148084,0.234734,0.855283
1522,264,3.29856,-0.0186119,0.233415,0.852584
1531,255,3.2982,-0.016736,0.2325,0.849946
1540,246,3.29864,-0.0128749,0.23118,0.847251
1549,237,3.29839,-0.0187231,0.230265,0.844638
1558,228,3.29829,-0.0147934,0.228945,0.841946
1567,219,3.29785,-0.0207914,0.228426,0.839111
1576,210,3.2977,-0.0189873,0.227501,0.836417
1585,201,3.298,-0.0150595,0.226176,0.833705
1594,192,3.29807,-0.0211226,0.225256,0.831041
1603,183,3.29713,-0.0194128,0.22473,0.828156
1612,174,3.29762,-0.0153851,0.223411,0.825496
1621,165,3.29719,-0.0134249,0.222487,0.822906
1630,156,3.29755,-0.0181473,0.221157,0.819799
1639,147,3.29898,-0.0122904,0.219467,0.816811
1648,138,3.29945,-0.0169646,0.217987,0.814014
1657,129,3.29794,-0.0172226,0.217878,0.811023
1666,120,3.29957,-0.0110516,0.215732,0.808411
1675,111,3.29797,-0.0199569,0.215591,0.805399
1684,102,3.29848,-0.0161133,0.214258,0.802578
1693,93,3.29865,-0.0119451,0.212926,0.799893
1702,84,3.29726,-0.0121399,0.212781,0.797173
1711,75,3.29841,-0.0149363,0.211054,0.79397
1720,66,3.2976,-0.012789,0.210112,0.791413
1729,57,3.29734,-0.0199953,0.209563,0.788198
1738,48,3.29738,-0.016028,0.208224,0.785384
1747,39,3.2964,-0.0160847,0.207672,0.782909
1756,30,3.29881,-0.0170881,0.205392,0.779353
1765,21,3.29912,-0.0137363,0.204056,0.776266
1774,12,3.29813,-0.013691,0.203498,0.773813
1783,3,3.29702,-0.0218473,0.202938,0.770266