Folder: MyBatteryML/hust_correlation_analysis/matrices (part 11)

File: HUST_3-6_cycle_feature_matrix.csv
cycle_number,rul,voltage,current,capacity,charge_capacity
1,2493,3.31611,0.0215783,0.292031,1.02404
13,2481,3.30634,-0.0170978,0.30423,1.00935
25,2469,3.31137,-0.0147795,0.300166,1.0153
37,2457,3.31354,-0.0135026,0.297474,1.01725
49,2445,3.31516,-0.0133887,0.296145,1.01796
61,2433,3.31521,-0.0147269,0.295711,1.01754
73,2421,3.3147,-0.0153842,0.296179,1.01718
85,2409,3.31588,-0.0140738,0.293841,1.016
97,2397,3.31509,-0.0153507,0.294779,1.01509
109,2385,3.31646,-0.014111,0.293878,1.01367
121,2373,3.31583,-0.0147329,0.293865,1.01331
133,2361,3.31666,-0.0134682,0.293996,1.01164
145,2349,3.31574,-0.0142728,0.293817,1.01098
157,2337,3.31463,-0.0155364,0.294704,1.00994
169,2325,3.3155,-0.0136356,0.293781,1.00875
181,2313,3.31522,-0.0151887,0.294232,1.0078
193,2301,3.31394,-0.0162301,0.29511,1.00681
205,2289,3.31495,-0.0137327,0.294189,1.00592
217,2277,3.31449,-0.0150947,0.294625,1.00498
229,2265,3.31346,-0.0157285,0.295068,1.00469
241,2253,3.315,-0.0137147,0.294147,1.00331
253,2241,3.31403,-0.01561,0.294998,1.00304
265,2229,3.31317,-0.0165868,0.295436,1.00229
277,2217,3.31327,-0.0175736,0.295595,1.0018
289,2205,3.31424,-0.0139603,0.294079,1.00048
301,2193,3.31332,-0.0164086,0.294964,1.00005
313,2181,3.31319,-0.0159356,0.295146,0.99931
325,2169,3.31234,-0.0183432,0.296037,0.998912
337,2157,3.31353,-0.0141105,0.294051,0.997819
349,2145,3.31291,-0.0153942,0.294502,0.996968
361,2133,3.3124,-0.0176497,0.294951,0.997134
373,2121,3.31357,-0.0140862,0.294037,0.995265
385,2109,3.31307,-0.0148417,0.294028,0.994866
397,2097,3.31234,-0.0154678,0.2945,0.994392
409,2085,3.31214,-0.016024,0.29449,0.994106
421,2073,3.31308,-0.01406,0.294039,0.992738
433,2061,3.31213,-0.0148153,0.294482,0.992099
445,2049,3.31139,-0.0155224,0.294961,0.9916
457,2037,3.31082,-0.0168411,0.295418,0.990736
469,2025,3.31235,-0.0141237,0.294035,0.990131
481,2013,3.31196,-0.014898,0.294478,0.989484
493,2001,3.31159,-0.015592,0.294465,0.98909
505,1989,3.3107,-0.0162821,0.29492,0.988539
517,1977,3.31043,-0.0170481,0.294916,0.988152
529,1965,3.31136,-0.0150482,0.294469,0.986798
541,1953,3.31125,-0.015706,0.295073,0.986428
553,1941,3.31074,-0.0162489,0.294476,0.986253
565,1929,3.3099,-0.0170989,0.294915,0.985546
577,1917,3.31199,-0.0143298,0.29354,0.984995
589,1905,3.31085,-0.0157692,0.294945,0.983815
601,1893,3.31033,-0.0165052,0.294465,0.983484
613,1881,3.31179,-0.0135887,0.293553,0.982794
625,1869,3.31104,-0.0150344,0.294018,0.981873
637,1857,3.30997,-0.0157757,0.294497,0.981321
649,1845,3.30985,-0.0164465,0.294496,0.981021
661,1833,3.30936,-0.0171421,0.294495,0.980678
673,1821,3.31071,-0.0144419,0.29356,0.979778
685,1809,3.31049,-0.0152042,0.293551,0.979405
697,1797,3.30975,-0.0165571,0.294504,0.978527
709,1785,3.30911,-0.0173989,0.29448,0.977871
721,1773,3.31067,-0.0145142,0.293087,0.977345
733,1761,3.30952,-0.0160474,0.294028,0.976153
745,1749,3.30915,-0.0166409,0.294038,0.975923
757,1737,3.30837,-0.0174148,0.295004,0.975325
769,1725,3.3102,-0.0147927,0.293177,0.974541
781,1713,3.30953,-0.0160441,0.293567,0.973774
793,1701,3.30905,-0.0168313,0.293559,0.97338
805,1689,3.31046,-0.0142159,0.29264,0.97248
817,1677,3.30977,-0.0154742,0.293106,0.971639
829,1665,3.30954,-0.0162058,0.293096,0.971274
841,1653,3.30923,-0.0169583,0.293086,0.970892
853,1641,3.31042,-0.0146568,0.292162,0.969841
865,1629,3.3096,-0.0155244,0.29326,0.969188
877,1617,3.30912,-0.0163003,0.29263,0.968814
889,1605,3.30843,-0.017679,0.293125,0.968011
901,1593,3.30974,-0.0148685,0.292273,0.967112
913,1581,3.3095,-0.0161762,0.292281,0.966547
925,1569,3.30857,-0.017052,0.292663,0.965884
937,1557,3.3098,-0.0148753,0.291721,0.964707
949,1545,3.30924,-0.0155486,0.291723,0.964401
961,1533,3.3085,-0.0164671,0.292178,0.963673
973,1521,3.30769,-0.018026,0.292667,0.962731
985,1509,3.30947,-0.0150621,0.291241,0.962142
997,1497,3.30864,-0.0165909,0.291768,0.961353
1009,1485,3.30763,-0.0179761,0.292224,0.960402
1021,1473,3.30947,-0.0151541,0.290782,0.959671
1033,1461,3.30859,-0.0164585,0.291283,0.958915
1045,1449,3.30769,-0.017313,0.291755,0.958246
1057,1437,3.30887,-0.015198,0.290811,0.957006
1069,1425,3.30806,-0.0166646,0.291312,0.956166
1081,1413,3.3072,-0.0180358,0.291809,0.955355
1093,1401,3.30896,-0.0150919,0.290376,0.954725
1105,1389,3.30809,-0.0167146,0.290858,0.953712
1117,1377,3.30705,-0.0181063,0.291368,0.95294
1129,1365,3.30836,-0.0160403,0.291031,0.951579
1141,1353,3.30775,-0.0169161,0.290887,0.951185
1153,1341,3.30679,-0.0184257,0.290963,0.950215
1165,1329,3.30806,-0.016263,0.289929,0.948989
1177,1317,3.30652,-0.0177702,0.290931,0.947884
1189,1305,3.30849,-0.0154322,0.289476,0.946924
1201,1293,3.30756,-0.0169277,0.289985,0.946074
1213,1281,3.30636,-0.0178589,0.290473,0.945385
1225,1269,3.30774,-0.0163201,0.289527,0.943867
1237,1257,3.30634,-0.0171731,0.290025,0.943251
1249,1245,3.30744,-0.014954,0.289084,0.942056
1261,1233,3.30664,-0.0172131,0.289591,0.940844
1273,1221,3.30573,-0.0187552,0.290176,0.9399
1285,1209,3.30698,-0.0165651,0.289147,0.938924
1297,1197,3.30571,-0.0180178,0.289649,0.937814
1309,1185,3.30673,-0.0158092,0.288698,0.936563
1321,1173,3.30566,-0.0173776,0.289219,0.935678
1333,1161,3.30476,-0.0189876,0.289717,0.934705
1345,1149,3.30589,-0.0165866,0.288755,0.933508
1357,1137,3.30466,-0.0183589,0.289259,0.932464
1369,1125,3.30604,-0.0161105,0.288294,0.931183
1381,1113,3.30504,-0.0183802,0.28883,0.93029
1393,1101,3.30601,-0.0161671,0.287852,0.928685
1405,1089,3.30523,-0.0178264,0.288351,0.927683
1417,1077,3.30377,-0.0193857,0.288876,0.926799
1429,1065,3.30486,-0.017204,0.287902,0.925454
1441,1053,3.30399,-0.0195154,0.288429,0.924241
1453,1041,3.30489,-0.0171974,0.287471,0.923008
1465,1029,3.30372,-0.018837,0.288071,0.922058
1477,1017,3.30495,-0.017087,0.287049,0.920633
1489,1005,3.30311,-0.0189266,0.288093,0.919337
1501,993,3.30451,-0.0172859,0.287141,0.917811
1513,981,3.30302,-0.0188979,0.287669,0.916899
1525,969,3.30378,-0.0174679,0.287235,0.914994
1537,957,3.30246,-0.0197128,0.28844,0.913906
1549,945,3.30339,-0.0174506,0.286818,0.912575
1561,933,3.30228,-0.019207,0.287351,0.911586
1573,921,3.30328,-0.0176028,0.286367,0.909753
1585,909,3.30165,-0.0194307,0.287427,0.908624
1597,897,3.30269,-0.0177993,0.28647,0.907054
1609,885,3.30125,-0.0195272,0.287493,0.906074
1621,873,3.30258,-0.0179314,0.286027,0.904446
1633,861,3.3004,-0.0204232,0.287137,0.903013
1645,849,3.30104,-0.0189984,0.286703,0.901011
1657,837,3.30222,-0.0172804,0.28574,0.899468
1669,825,3.30074,-0.018976,0.286283,0.8985
1681,813,3.30185,-0.0173458,0.285298,0.896839
1693,801,3.29965,-0.0202098,0.286391,0.895132
1705,789,3.30074,-0.0184709,0.285425,0.893564
1717,777,3.29873,-0.0212162,0.286543,0.891971
1729,765,3.29976,-0.0194634,0.285579,0.890406
1741,753,3.30005,-0.0178289,0.285164,0.888506
1753,741,3.29849,-0.0203935,0.285722,0.887213
1765,729,3.29881,-0.0187562,0.285812,0.885333
1777,717,3.29987,-0.0170355,0.284342,0.883714
1789,705,3.2984,-0.0196472,0.284912,0.882435
1801,693,3.29873,-0.0189356,0.284486,0.880067
1813,681,3.2962,-0.0218907,0.285623,0.878355
1825,669,3.29719,-0.0202757,0.284637,0.876642
1837,657,3.29771,-0.0194309,0.284306,0.87439
1849,645,3.298,-0.018571,0.283834,0.872146
1861,633,3.29563,-0.0215154,0.284995,0.870432
1873,621,3.29677,-0.0181315,0.283437,0.868552
1885,609,3.2968,-0.0265506,0.283035,0.866214
1897,597,3.29731,-0.0211532,0.281961,0.863879
1909,585,3.29532,-0.02011,0.28148,0.862014
1921,573,3.29564,-0.0275525,0.280477,0.860295
1933,561,3.29633,-0.022198,0.278891,0.857896
1945,549,3.29702,-0.016661,0.277326,0.855608
1957,537,3.29716,-0.0228039,0.276325,0.853272
1969,525,3.2954,-0.0241205,0.276319,0.851595
1981,513,3.29605,-0.0185872,0.274732,0.849247
1993,501,3.29599,-0.0247667,0.273727,0.845419
2005,489,3.29629,-0.0216902,0.272724,0.844546
2017,477,3.29704,-0.0169036,0.271144,0.84193
2029,465,3.29419,-0.0277688,0.271714,0.839931
2041,453,3.29484,-0.0222379,0.270131,0.837596
2053,441,3.29527,-0.0198573,0.269131,0.834991
2065,429,3.29545,-0.0236555,0.267537,0.832664
2077,417,3.29558,-0.0205509,0.266516,0.830281
2089,405,3.29553,-0.0278193,0.265511,0.827663
2101,393,3.29591,-0.0220426,0.263919,0.825352
2113,381,3.29727,-0.0162923,0.261751,0.82329
2125,369,3.2966,-0.0234979,0.261322,0.820491
2137,357,3.29433,-0.0234208,0.2613,0.81811
2149,345,3.29435,-0.0203163,0.26027,0.815693
2161,333,3.29436,-0.0268021,0.259241,0.81336
2173,321,3.29481,-0.0217196,0.257642,0.810787
2185,309,3.29478,-0.0291693,0.256649,0.808116
2197,297,3.29476,-0.0259846,0.255564,0.805734
2209,285,3.29535,-0.0210597,0.25397,0.803113
2221,273,3.29562,-0.0259545,0.252348,0.800412
2233,261,3.29558,-0.0226517,0.251314,0.79812
2245,249,3.29538,-0.0178722,0.250276,0.79511
2257,237,3.29509,-0.0253809,0.249209,0.792423
2269,225,3.29603,-0.0178829,0.247025,0.789663
2281,213,3.29541,-0.0279685,0.246558,0.787207
2293,201,3.29537,-0.0246128,0.245493,0.78483
2305,189,3.29304,-0.0245366,0.245476,0.782457
2317,177,3.29191,-0.0323834,0.245002,0.779574
2329,165,3.29307,-0.0287532,0.243506,0.777589
2341,153,3.29217,-0.0290237,0.24344,0.774635
2353,141,3.29249,-0.0317674,0.241216,0.771792
2365,129,3.29273,-0.0266064,0.239009,0.769157
2377,117,3.29326,-0.0204916,0.238381,0.766748
2389,105,3.29292,-0.0284276,0.236865,0.764069
2401,93,3.29342,-0.0231607,0.235235,0.761446
2413,81,3.29231,-0.0312158,0.234701,0.758452
2425,69,3.29305,-0.023299,0.232496,0.755929
2437,57,3.29337,-0.0207351,0.231415,0.753087
2449,45,3.29242,-0.0305566,0.230882,0.750802
2461,33,3.29283,-0.0252865,0.229222,0.748079
2473,21,3.29265,-0.0306394,0.227562,0.745363
2485,9,3.29198,-0.0282153,0.227015,0.742387
2491,3,3.29052,-0.0277095,0.227014,0.741375

File: HUST_3-7_cycle_feature_matrix.csv
cycle_number,rul,voltage,current,capacity,charge_capacity
1,2481,3.32318,-0.0162809,0.282736,0.987881
13,2469,3.312,-0.0199989,0.286373,0.98148
25,2457,3.31405,-0.0186078,0.284398,0.980527
37,2445,3.3139,-0.0217454,0.284361,0.980353
49,2433,3.31635,-0.0196575,0.282848,0.979357
61,2421,3.31589,-0.0209566,0.282821,0.978745
73,2409,3.3154,-0.022435,0.282821,0.97813
85,2397,3.31724,-0.0203273,0.281779,0.977177
97,2385,3.3165,-0.0217769,0.281337,0.976625
109,2373,3.31636,-0.0224853,0.281317,0.976264
121,2361,3.31754,-0.0204885,0.280314,0.975104
133,2349,3.31724,-0.0211222,0.280298,0.974777
145,2337,3.31694,-0.0218693,0.280306,0.974497
157,2325,3.31814,-0.0197234,0.279269,0.973272
169,2313,3.31823,-0.0204896,0.279258,0.972926
181,2301,3.31763,-0.0212374,0.279288,0.972709
193,2289,3.31655,-0.0221038,0.279748,0.972074
205,2277,3.31872,-0.0198141,0.278262,0.971233
217,2265,3.31825,-0.0206819,0.278729,0.970607
229,2253,3.31789,-0.0214612,0.278722,0.970261
241,2241,3.31752,-0.0220916,0.278716,0.969966
253,2229,3.31767,-0.0228219,0.278719,0.969679
265,2217,3.31908,-0.0200751,0.277689,0.968739
277,2205,3.31886,-0.0199022,0.277193,0.968972
289,2193,3.31846,-0.0205658,0.277622,0.968307
301,2181,3.31867,-0.0205502,0.277153,0.968558
313,2169,3.31828,-0.0214052,0.277609,0.967904
325,2157,3.31794,-0.0229402,0.27764,0.967373
337,2145,3.32006,-0.0191047,0.275655,0.967352
349,2133,3.31927,-0.0206989,0.276139,0.966479
361,2121,3.31903,-0.0206525,0.276129,0.966471
373,2109,3.3187,-0.0214171,0.276124,0.966132
385,2097,3.31874,-0.0222243,0.276141,0.965852
397,2085,3.31798,-0.0229677,0.276599,0.965251
409,2073,3.32006,-0.0208081,0.275119,0.964395
421,2061,3.31952,-0.0208736,0.275103,0.964307
433,2049,3.31879,-0.022329,0.27558,0.963465
445,2037,3.3182,-0.0230826,0.275587,0.963186
457,2025,3.31983,-0.0201728,0.274986,0.962245
469,2013,3.31944,-0.0208931,0.27456,0.962022
481,2001,3.31937,-0.0216895,0.274545,0.961647
493,1989,3.31906,-0.0224285,0.274562,0.961398
505,1977,3.3181,-0.0233096,0.275041,0.960802
517,1965,3.32035,-0.0202544,0.273511,0.960149
529,1953,3.31984,-0.0198709,0.273533,0.959173
541,1941,3.31978,-0.0216784,0.273501,0.959524
553,1929,3.31959,-0.0225437,0.273504,0.959171
565,1917,3.31917,-0.0231786,0.27349,0.958864
577,1905,3.3207,-0.02038,0.27244,0.957879
589,1893,3.3203,-0.0210927,0.272462,0.957668
601,1881,3.32013,-0.0218942,0.272444,0.957271
613,1869,3.31956,-0.0225577,0.272469,0.957093
625,1857,3.31881,-0.0234076,0.272917,0.956411
637,1845,3.32094,-0.0204408,0.271488,0.9554
649,1833,3.32043,-0.0211409,0.271418,0.955537
661,1821,3.32042,-0.0218872,0.271402,0.955166
673,1809,3.31945,-0.0235359,0.271899,0.954317
685,1797,3.32139,-0.0198513,0.270383,0.953988
697,1785,3.3208,-0.0213088,0.270853,0.95313
709,1773,3.32044,-0.0201028,0.270394,0.952704
721,1761,3.3204,-0.0208194,0.270836,0.952394
733,1749,3.3201,-0.0215749,0.270391,0.952078
745,1737,3.32148,-0.0186434,0.269333,0.949705
757,1725,3.3213,-0.0213946,0.269794,0.950923
769,1713,3.32091,-0.0220887,0.269794,0.950641
781,1701,3.3205,-0.0228392,0.269787,0.950298
793,1689,3.31975,-0.0238062,0.270269,0.949689
805,1677,3.32148,-0.020674,0.268744,0.949095
817,1665,3.32115,-0.021465,0.268748,0.948774
829,1653,3.32003,-0.0211547,0.269224,0.947469
841,1641,3.31961,-0.0219346,0.269216,0.947108
853,1629,3.32202,-0.0206209,0.268261,0.946905
865,1617,3.3211,-0.0196093,0.268275,0.946163
877,1605,3.32097,-0.0224379,0.268129,0.945866
889,1593,3.32082,-0.0218205,0.267692,0.94527
901,1581,3.32251,-0.0189403,0.266628,0.944289
913,1569,3.32177,-0.021617,0.267088,0.944096
925,1557,3.32103,-0.0224397,0.267547,0.942117
937,1545,3.32083,-0.0239884,0.267539,0.942797
949,1533,3.32237,-0.0217028,0.266496,0.941643
961,1521,3.32121,-0.0225634,0.26695,0.940965
973,1509,3.32023,-0.0222288,0.266977,0.939973
985,1497,3.32199,-0.0190505,0.265439,0.939382
997,1485,3.32142,-0.020728,0.266349,0.938198
1009,1473,3.32082,-0.0214518,0.265917,0.938147
1021,1461,3.32224,-0.0192474,0.264848,0.936859
1033,1449,3.32189,-0.0199938,0.26484,0.936534
1045,1437,3.32089,-0.021584,0.265312,0.935608
1057,1425,3.31967,-0.0243956,0.266239,0.93508
1069,1413,3.32133,-0.0221678,0.265176,0.933816
1081,1401,3.32059,-0.023861,0.265654,0.932867
1093,1389,3.32189,-0.0215834,0.264605,0.931672
1105,1377,3.32146,-0.0202928,0.264122,0.931254
1117,1365,3.32071,-0.0238808,0.264584,0.930676
1129,1353,3.32241,-0.0194899,0.263051,0.929393
1141,1341,3.32126,-0.0203869,0.263518,0.928739
1153,1329,3.32,-0.0240565,0.264464,0.927875
1165,1317,3.32145,-0.0217541,0.2634,0.926656
1177,1305,3.32055,-0.0213353,0.263407,0.925639
1189,1293,3.31944,-0.0229528,0.263899,0.924767
1201,1281,3.32086,-0.0205149,0.262811,0.923514
1213,1269,3.32015,-0.0214172,0.262803,0.923124
1225,1257,3.32147,-0.0189725,0.261743,0.921999
1237,1245,3.32049,-0.0207312,0.262203,0.92092
1249,1233,3.3194,-0.0245159,0.263168,0.920045
1261,1221,3.32129,-0.0211973,0.26219,0.919425
1273,1209,3.32018,-0.0229066,0.26207,0.918435
1285,1197,3.31891,-0.0234534,0.262581,0.91683
1297,1185,3.32041,-0.0222673,0.261482,0.916244
1309,1173,3.31955,-0.0239867,0.261967,0.915274
1321,1161,3.32114,-0.0202043,0.260406,0.913688
1333,1149,3.31992,-0.0239956,0.261379,0.912814
1345,1137,3.3186,-0.025736,0.261868,0.911842
1357,1125,3.31979,-0.0232973,0.260776,0.910581
1369,1113,3.3187,-0.0228248,0.260779,0.90959
1381,1101,3.31984,-0.0204933,0.259694,0.908309
1393,1089,3.31873,-0.0222568,0.260189,0.907347
1405,1077,3.31934,-0.0207448,0.259587,0.90542
1417,1065,3.318,-0.0223862,0.260097,0.904571
1429,1053,3.31925,-0.0199067,0.258986,0.90186
1441,1041,3.31755,-0.0225007,0.259987,0.901675
1453,1029,3.31604,-0.0243469,0.260501,0.900742
1465,1017,3.31762,-0.022706,0.259393,0.899094
1477,1005,3.31606,-0.0244239,0.259887,0.898122
1489,993,3.31751,-0.0228477,0.258989,0.896471
1501,981,3.31514,-0.0270066,0.260296,0.895187
1513,969,3.31662,-0.0229802,0.258692,0.893628
1525,957,3.31757,-0.0214488,0.25808,0.891628
1537,945,3.3165,-0.0253157,0.259184,0.891001
1549,933,3.31683,-0.0238553,0.257986,0.889039
1561,921,3.31484,-0.0265713,0.259015,0.887433
1573,909,3.31612,-0.024888,0.258089,0.885736
1585,897,3.31438,-0.0275604,0.258416,0.884503
1597,885,3.3147,-0.025889,0.257814,0.882553
1609,873,3.31554,-0.0243856,0.25721,0.880524
1621,861,3.31375,-0.0249159,0.257239,0.879265
1633,849,3.31361,-0.0264036,0.25769,0.876698
1645,837,3.31471,-0.024678,0.256559,0.875034
1657,825,3.3123,-0.0260165,0.257107,0.873165
1669,813,3.31292,-0.0245092,0.256505,0.871104
1681,801,3.31367,-0.0226498,0.255362,0.869449
1693,789,3.31419,-0.0219242,0.254984,0.867193
1705,777,3.31166,-0.0256481,0.255854,0.865231
1717,765,3.31231,-0.0239859,0.255252,0.863199
1729,753,3.31237,-0.0214734,0.254119,0.86069
1741,741,3.31028,-0.0332103,0.254631,0.859457
1753,729,3.31103,-0.027489,0.25292,0.857112
1765,717,3.31162,-0.0244592,0.25178,0.854764
1777,705,3.31242,-0.0202185,0.250608,0.852713
1789,693,3.30983,-0.0334921,0.251145,0.851356
1801,681,3.31075,-0.0279224,0.249457,0.848817
1813,669,3.31095,-0.0245425,0.248284,0.846485
1825,657,3.3114,-0.0213269,0.247312,0.844128
1837,645,3.30837,-0.0351006,0.248204,0.84214
1849,633,3.30873,-0.031802,0.24703,0.839795
1861,621,3.30973,-0.0259612,0.245295,0.837432
1873,609,3.31086,-0.0216083,0.243555,0.835701
1885,597,3.31062,-0.0306478,0.242926,0.832195
1897,585,3.30874,-0.029568,0.242929,0.831478
1909,573,3.30929,-0.0237789,0.241192,0.829095
1921,561,3.30941,-0.0228978,0.240555,0.826788
1933,549,3.30961,-0.0296701,0.239357,0.824393
1945,537,3.30976,-0.0261791,0.238157,0.822077
1957,525,3.30769,-0.0277574,0.238704,0.820107
1969,513,3.30806,-0.0243318,0.238115,0.817761
1981,501,3.30814,-0.0234445,0.236846,0.815424
1993,489,3.3094,-0.0273926,0.234534,0.813461
2005,477,3.30707,-0.0254901,0.23451,0.81171
2017,465,3.30785,-0.0244052,0.233294,0.809734
2029,453,3.30926,-0.0302992,0.231511,0.807932
2041,441,3.30919,-0.0252165,0.230302,0.804996
2053,429,3.30683,-0.0268068,0.230844,0.803044
2065,417,3.30743,-0.0352312,0.229605,0.801338
2077,405,3.308,-0.0317892,0.228376,0.798982
2089,393,3.30854,-0.0282473,0.22715,0.796655
2101,381,3.30587,-0.0298786,0.227683,0.794666
2113,369,3.30632,-0.0369477,0.226448,0.792339
2125,357,3.30749,-0.0321361,0.224666,0.790733
2137,345,3.30792,-0.0286575,0.223403,0.788275
2149,333,3.3063,-0.0292188,0.223389,0.786938
2161,321,3.3068,-0.0255404,0.222142,0.784627
2173,309,3.30705,-0.0326783,0.22088,0.782272
2185,297,3.30838,-0.02779,0.219065,0.780585
2197,285,3.30618,-0.0295474,0.219602,0.778597
2209,273,3.30655,-0.0248738,0.218326,0.775227
2221,261,3.30747,-0.0346905,0.217046,0.774515
2233,249,3.30521,-0.0326625,0.217038,0.772824
2245,237,3.30612,-0.0290556,0.215766,0.770466
2257,225,3.30706,-0.0268176,0.214472,0.768775
2269,213,3.30386,-0.0396009,0.215007,0.766818
2281,201,3.30537,-0.0348317,0.213187,0.765133
2293,189,3.30625,-0.0309501,0.211883,0.762781
2305,177,3.3079,-0.0259813,0.210045,0.761091
2317,165,3.30501,-0.0390423,0.210574,0.759099
2329,153,3.30502,-0.0370687,0.209803,0.757009
2341,141,3.30712,-0.0301973,0.207425,0.755083
2353,129,3.30447,-0.0310398,0.207955,0.753373
2365,117,3.30626,-0.0259257,0.206101,0.7517
2377,105,3.30633,-0.0363329,0.205324,0.749412
2389,93,3.30455,-0.0368269,0.205309,0.7481
2401,81,3.30529,-0.0320396,0.203972,0.745941
2413,69,3.30692,-0.0280405,0.202103,0.743932
2425,57,3.30425,-0.0286385,0.20263,0.742307
2437,45,3.30523,-0.039178,0.20129,0.740308
2449,33,3.3058,-0.0342853,0.199939,0.738182
2461,21,3.30441,-0.0318838,0.199401,0.736915
2473,9,3.305616,-0.0278883,0.197561,0.734566
2479,3,3.3047,-0.0289999,0.19805,0.734279