Folder: MyBatteryML/hust_correlation_analysis/matrices (part 22)

File: HUST_6-5_cycle_feature_matrix.csv
cycle_number,rul,voltage,current,capacity,charge_capacity
1,2180,3.32782,-0.0203823,0.26969,1.00183
11,2170,3.31719,-0.0215916,0.272307,0.994275
21,2160,3.31627,-0.0245867,0.2723,0.992996
31,2150,3.31807,-0.0231299,0.270806,0.991822
41,2140,3.31778,-0.0238794,0.2708,0.991486
51,2130,3.31915,-0.0217998,0.269642,0.990566
61,2120,3.31819,-0.0235648,0.269735,0.989522
71,2110,3.31927,-0.0207085,0.268216,0.988916
81,2100,3.31847,-0.0222008,0.268486,0.98826
91,2090,3.32096,-0.0193323,0.266557,0.987963
101,2080,3.32045,-0.0201772,0.266981,0.987312
111,2070,3.32011,-0.0215412,0.26698,0.986726
121,2060,3.3195,-0.0221481,0.266981,0.986466
131,2050,3.32086,-0.0198212,0.265911,0.985369
141,2040,3.32066,-0.0207424,0.26591,0.984972
151,2030,3.32086,-0.0214759,0.265908,0.984657
161,2020,3.32047,-0.0215558,0.266007,0.984628
171,2010,3.31945,-0.0230078,0.26634,0.983733
181,2000,3.32107,-0.0202863,0.264841,0.983085
191,1990,3.3215,-0.0201666,0.264409,0.983395
201,1980,3.32051,-0.020882,0.264846,0.982854
211,1970,3.32064,-0.02195,0.264847,0.982392
221,1960,3.32075,-0.022775,0.265033,0.981794
231,1950,3.31926,-0.0231693,0.265279,0.981607
241,1940,3.32048,-0.0233722,0.264602,0.981797
251,1930,3.31973,-0.0242048,0.265035,0.981185
261,1920,3.31997,-0.0247836,0.264921,0.981187
271,1910,3.32062,-0.0219927,0.263773,0.980272
281,1900,3.32114,-0.0220184,0.263528,0.980264
291,1890,3.32,-0.0228545,0.263953,0.979612
301,1880,3.32139,-0.0196472,0.262266,0.979404
311,1870,3.32131,-0.0210302,0.262263,0.978813
321,1860,3.32089,-0.0216969,0.262259,0.978517
331,1850,3.32059,-0.0224623,0.262253,0.978172
341,1840,3.32033,-0.0231549,0.262727,0.977886
351,1830,3.32203,-0.0203236,0.260752,0.977262
361,1820,3.32204,-0.0211281,0.260749,0.9769
371,1810,3.32169,-0.0225672,0.260751,0.976284
381,1800,3.32125,-0.0226064,0.260749,0.976262
391,1790,3.32365,-0.0196646,0.258817,0.975918
401,1780,3.32345,-0.0210898,0.258819,0.975312
411,1770,3.3225,-0.0218112,0.259246,0.974753
421,1760,3.32227,-0.0225764,0.259247,0.974426
431,1750,3.32243,-0.0231642,0.258819,0.974402
441,1740,3.32396,-0.0203341,0.257318,0.973772
451,1730,3.32416,-0.0210916,0.257321,0.973466
461,1720,3.32336,-0.0226224,0.257741,0.972518
471,1710,3.3234,-0.0225088,0.257314,0.972807
481,1700,3.32488,-0.0203902,0.256242,0.971646
491,1690,3.3252,-0.020712,0.255819,0.971761
501,1680,3.32384,-0.0218887,0.256237,0.970976
511,1670,3.32475,-0.023087,0.256005,0.970464
521,1660,3.32376,-0.0231884,0.255448,0.970646
531,1650,3.32538,-0.0204405,0.254733,0.969739
541,1640,3.32481,-0.0211942,0.254735,0.969395
551,1630,3.3251,-0.021879,0.254311,0.969345
561,1620,3.3246,-0.0225939,0.254311,0.969017
571,1610,3.32565,-0.0236736,0.254081,0.968557
581,1600,3.32645,-0.020477,0.252805,0.96806
591,1590,3.32555,-0.0219468,0.253227,0.967172
601,1580,3.32599,-0.0222439,0.252805,0.967277
611,1570,3.32495,-0.0234348,0.253309,0.96648
621,1560,3.32724,-0.0204343,0.251303,0.966181
631,1550,3.32672,-0.021147,0.2513,0.965846
641,1540,3.32562,-0.0228454,0.252128,0.964592
651,1530,3.32633,-0.0234298,0.251714,0.964587
661,1520,3.32801,-0.0208677,0.250534,0.963837
671,1510,3.3273,-0.0217253,0.250214,0.963468
681,1500,3.32652,-0.0231495,0.250824,0.962375
691,1490,3.32697,-0.0238907,0.25071,0.962292
701,1480,3.32696,-0.0245099,0.24999,0.962253
711,1470,3.327865,-0.0224835,0.249319,0.960779
721,1460,3.32786,-0.0233165,0.249318,0.958934
731,1450,3.327355,-0.023938,0.249316,0.960122
741,1440,3.32739,-0.0246574,0.248901,0.960034
751,1430,3.32895,-0.0218096,0.2474,0.9594
761,1420,3.328802,-0.022427,0.247398,0.959111
771,1410,3.3287,-0.0239089,0.247713,0.95846
781,1400,3.32756,-0.0246608,0.247806,0.957862
791,1390,3.32853,-0.0209033,0.246716,0.956157
801,1380,3.32925,-0.0233816,0.246301,0.956512
811,1370,3.32842,-0.0276489,0.245889,0.955682
821,1360,3.32756,-0.0237924,0.246709,0.954837
831,1350,3.3294,-0.0243407,0.244699,0.95399
841,1340,3.32876,-0.025186,0.244383,0.953613
851,1330,3.33021,-0.020261,0.243467,0.953496
861,1320,3.32901,-0.0235876,0.243568,0.952331
871,1310,3.33065,-0.0224793,0.242473,0.951905
881,1300,3.32946,-0.0241822,0.242879,0.9509
891,1290,3.32906,-0.0303085,0.242473,0.950465
901,1280,3.33002,-0.0283132,0.241777,0.948953
911,1270,3.33048,-0.0269989,0.240971,0.948798
921,1260,3.3298,-0.0277469,0.240963,0.948437
931,1250,3.33032,-0.023503,0.239674,0.947162
941,1240,3.33101,-0.0233527,0.239463,0.946009
951,1230,3.33063,-0.0244958,0.239457,0.945478
961,1220,3.33142,-0.0214239,0.23817,0.944923
971,1210,3.33229,-0.0208213,0.237561,0.944199
981,1200,3.3315,-0.0288684,0.23756,0.94392
991,1190,3.3303,-0.0284927,0.237957,0.942618
1001,1180,3.33253,-0.0256233,0.236061,0.942203
1011,1170,3.33168,-0.0251708,0.236062,0.941178
1021,1160,3.33063,-0.0280144,0.236859,0.94069
1031,1150,3.33165,-0.0221961,0.236023,0.93949
1041,1140,3.33277,-0.0227162,0.234563,0.939109
1051,1130,3.33184,-0.0242086,0.23504,0.938222
1061,1120,3.33107,-0.0238122,0.234953,0.937152
1071,1110,3.33249,-0.0282984,0.233532,0.936539
1081,1100,3.33286,-0.0224914,0.232917,0.935337
1091,1090,3.33093,-0.0275549,0.233451,0.934398
1101,1080,3.3321,-0.028349,0.232735,0.934128
1111,1070,3.33189,-0.0281396,0.232734,0.932981
1121,1060,3.33108,-0.0277265,0.232732,0.931926
1131,1050,3.33226,-0.02362,0.231232,0.93058
1141,1040,3.33191,-0.02517,0.231231,0.929919
1151,1030,3.33304,-0.0210761,0.230119,0.92832
1161,1020,3.33201,-0.0217253,0.230119,0.928038
1171,1010,3.33268,-0.0159382,0.229568,0.926771
1181,1000,3.33253,-0.0285511,0.229394,0.925959
1191,990,3.33171,-0.0263381,0.228996,0.924668
1201,980,3.33131,-0.029876,0.229393,0.92415
1211,970,3.33167,-0.0257931,0.22827,0.922521
1221,960,3.33312,-0.0212326,0.226554,0.921548
1231,950,3.33374,-0.0203893,0.225979,0.920934
1241,940,3.33111,-0.0244039,0.227336,0.919709
1251,930,3.33251,-0.0201872,0.225819,0.918365
1261,920,3.33211,-0.0298,0.226017,0.917291
1271,910,3.33137,-0.02947,0.226018,0.916192
1281,900,3.3317,-0.0253181,0.22469,0.914822
1291,890,3.33176,-0.0268713,0.224891,0.913923
1301,880,3.33303,-0.0234101,0.223375,0.912261
1311,870,3.33175,-0.0250012,0.223764,0.911342
1321,860,3.33098,-0.0246725,0.223764,0.910262
1331,850,3.33258,-0.0299826,0.222243,0.909364
1341,840,3.33099,-0.030494,0.222629,0.907675
1351,830,3.33187,-0.0270969,0.221501,0.905757
1361,820,3.33095,-0.0306744,0.221888,0.905243
1371,810,3.33222,-0.0263187,0.220363,0.90393
1381,800,3.3309,-0.0249123,0.220359,0.902044
1391,790,3.33304,-0.022607,0.218835,0.901102
1401,780,3.33075,-0.0327448,0.219607,0.899653
1411,770,3.33112,-0.0286799,0.218467,0.898229
1421,760,3.33041,-0.0310159,0.218853,0.896764
1431,750,3.33202,-0.0286586,0.217319,0.895819
1441,740,3.33024,-0.0291984,0.217708,0.894142
1451,730,3.3316,-0.0256078,0.216167,0.892446
1461,720,3.33244,-0.0242825,0.215406,0.890613
1471,710,3.33102,-0.0317993,0.215403,0.889567
1481,700,3.33189,-0.0287892,0.214246,0.887401
1491,690,3.33161,-0.0272003,0.213251,0.885875
1501,680,3.33092,-0.0251164,0.212866,0.88451
1511,670,3.33116,-0.0258106,0.212476,0.882833
1521,660,3.33229,-0.0205291,0.210923,0.880577
1531,650,3.33051,-0.0310561,0.211308,0.879336
1541,640,3.33139,-0.0254645,0.209754,0.877223
1551,630,3.32954,-0.0259328,0.210139,0.875562
1561,620,3.33081,-0.0243953,0.208969,0.874033
1571,610,3.32985,-0.0272908,0.209585,0.872414
1581,600,3.32964,-0.0318122,0.208176,0.870716
1591,590,3.33027,-0.0302078,0.207,0.869209
1601,580,3.3294,-0.0296425,0.207233,0.866998
1611,570,3.33027,-0.0280405,0.206052,0.865224
1621,560,3.33156,-0.0263892,0.204868,0.863712
1631,550,3.32852,-0.0328023,0.205252,0.860531
1641,540,3.32865,-0.0308225,0.204206,0.859115
1651,530,3.32888,-0.0292857,0.2034,0.85732
1661,520,3.32952,-0.0265209,0.202207,0.855017
1671,510,3.33048,-0.0225928,0.200619,0.853384
1681,500,3.32799,-0.0284558,0.202159,0.851344
1691,490,3.32933,-0.0224066,0.200178,0.849547
1701,480,3.32723,-0.0349187,0.201208,0.847324
1711,470,3.32707,-0.031168,0.200016,0.845587
1721,460,3.32867,-0.0283087,0.198401,0.843294
1731,450,3.3269,-0.0274173,0.198397,0.841166
1741,440,3.32727,-0.0343867,0.197569,0.839393
1751,430,3.3272,-0.0337283,0.19674,0.837257
1761,420,3.3273,-0.0332566,0.196513,0.834765
1771,410,3.3254,-0.0324212,0.19629,0.832622
1781,400,3.32547,-0.0316202,0.195453,0.830513
1791,390,3.32631,-0.0255348,0.193828,0.828222
1801,380,3.32715,-0.0335506,0.192594,0.826543
1811,370,3.32685,-0.030735,0.191741,0.823911
1821,360,3.3248,-0.0320764,0.192124,0.821949
1831,350,3.32496,-0.0289965,0.19088,0.819668
1841,340,3.32578,-0.0258856,0.189631,0.8174
1851,330,3.3261,-0.0320228,0.188377,0.815057
1861,320,3.32594,-0.0290447,0.187506,0.812276
1871,310,3.32314,-0.0351338,0.188673,0.810762
1881,300,3.32411,-0.0296623,0.187017,0.80834
1891,290,3.32538,-0.0198421,0.185389,0.805524
1901,280,3.32433,-0.0258049,0.18525,0.803561
1911,270,3.32259,-0.0366008,0.185384,0.801592
1921,260,3.32223,-0.0359245,0.184749,0.7994
1931,250,3.3232,-0.0307456,0.183069,0.796804
1941,240,3.32325,-0.0299527,0.182168,0.794631
1951,230,3.32365,-0.0274018,0.181267,0.79184
1961,220,3.32303,-0.0357917,0.180355,0.789782
1971,210,3.324,-0.0305855,0.178656,0.787177
1981,200,3.32171,-0.0345351,0.179436,0.785601
1991,190,3.3215,-0.0314525,0.178515,0.782701
2001,180,3.32202,-0.0361951,0.176801,0.779994
2011,170,3.32177,-0.0375918,0.176262,0.778051
2021,160,3.32282,-0.0321907,0.174544,0.775491
2031,150,3.32401,-0.0264289,0.172821,0.77302
2041,140,3.32082,-0.0309228,0.173589,0.771014
2051,130,3.32068,-0.0407619,0.173036,0.768354
2061,120,3.32189,-0.0372855,0.171297,0.766359
2071,110,3.32269,-0.0313223,0.169556,0.763751
2081,100,3.32301,-0.0305068,0.168819,0.761709
2091,90,3.32358,-0.0373619,0.167222,0.75937
2101,80,3.32104,-0.0425735,0.167992,0.757204
2111,70,3.32391,-0.0340644,0.164909,0.753126
2121,60,3.32194,-0.0356621,0.165243,0.752582
2131,50,3.32282,-0.0307454,0.163476,0.749793
2141,40,3.3233,-0.0402318,0.162468,0.747602
2151,30,3.32394,-0.0340375,0.160695,0.745181
2161,20,3.32534,-0.0316089,0.158918,0.742827
2171,10,3.32599,-0.0385207,0.157514,0.740532
2178,3,3.32436,-0.0390217,0.157733,0.739208

File: HUST_6-6_cycle_feature_matrix.csv
cycle_number,rul,voltage,current,capacity,charge_capacity
1,2470,3.32534,0.0390004,0.310224,1.05424
13,2458,3.30732,-0.0114779,0.342314,1.0236
25,2446,3.31194,-0.00851067,0.337191,1.03128
37,2434,3.31384,-0.00912017,0.334974,1.0354
49,2422,3.31573,-0.0107019,0.333935,1.03727
61,2410,3.31495,-0.010183,0.333069,1.03822
73,2398,3.31675,-0.0090433,0.331091,1.03707
85,2386,3.31676,-0.00902896,0.330648,1.03721
97,2374,3.31633,-0.0107105,0.330658,1.03616
109,2362,3.31798,-0.00854855,0.329101,1.03569
121,2350,3.31736,-0.00952012,0.329103,1.03508
133,2338,3.31636,-0.0108306,0.329942,1.03389
145,2326,3.31708,-0.00912231,0.329329,1.03283
157,2314,3.3164,-0.0102948,0.329677,1.03192
169,2302,3.31797,-0.00845081,0.328552,1.0311
181,2290,3.31698,-0.00966873,0.328978,1.03016
193,2278,3.31653,-0.0102643,0.329407,1.02962
205,2266,3.31729,-0.00857669,0.328709,1.02851
217,2254,3.31718,-0.00913942,0.329223,1.02793
229,2242,3.31594,-0.00936286,0.330406,1.02723
241,2230,3.31638,-0.0103824,0.330399,1.02659
253,2218,3.31695,-0.00922973,0.329271,1.02531
265,2206,3.31653,-0.00983665,0.32969,1.02472
277,2194,3.3178,-0.00806805,0.328139,1.02402
289,2182,3.31663,-0.00930667,0.329422,1.0227
301,2170,3.31611,-0.0104347,0.329429,1.02201
313,2158,3.31523,-0.011088,0.329777,1.02141
325,2146,3.3163,-0.00937996,0.329162,1.02031
337,2134,3.31575,-0.0098068,0.329169,1.02005
349,2122,3.31465,-0.0111344,0.330042,1.0189
361,2110,3.31633,-0.00868134,0.328909,1.01841
373,2098,3.31541,-0.00992418,0.329782,1.01729
385,2086,3.31464,-0.010532,0.329784,1.01692
397,2074,3.31543,-0.0088798,0.329525,1.01557
409,2062,3.31539,-0.00926068,0.329529,1.01535
421,2050,3.31449,-0.0100044,0.329965,1.01469
433,2038,3.31443,-0.0106246,0.329966,1.01431
445,2026,3.3158,-0.00885255,0.329262,1.0132
457,2014,3.31462,-0.00954167,0.329817,1.01263
469,2002,3.31496,-0.00998772,0.329704,1.01233
481,1990,3.31397,-0.0111813,0.330154,1.01143
493,1978,3.31499,-0.00889804,0.329448,1.01061
505,1966,3.31393,-0.0101341,0.330348,1.00955
517,1954,3.31368,-0.0106717,0.330335,1.00918
529,1942,3.31271,-0.011282,0.330798,1.00867
541,1930,3.3141,-0.00946822,0.329656,1.00775
553,1918,3.31397,-0.00895895,0.329336,1.00683
565,1906,3.31316,-0.00957057,0.329787,1.00629
577,1894,3.31283,-0.0101347,0.329785,1.00594
589,1882,3.31431,-0.00919089,0.329418,1.00558
601,1870,3.31308,-0.0101502,0.330313,1.00464
613,1858,3.31309,-0.0107619,0.330307,1.00424
625,1846,3.31408,-0.00892986,0.329618,1.00316
637,1834,3.31381,-0.00957331,0.329718,1.00278
649,1822,3.313,-0.00896166,0.329852,1.00187
661,1810,3.3122,-0.0114887,0.330524,1.00128
673,1798,3.31312,-0.00901144,0.329827,1.00055
685,1786,3.3134,-0.00974947,0.329743,1.00011
697,1774,3.31265,-0.00901776,0.329495,0.999283
709,1762,3.31239,-0.0114359,0.330379,0.998895
721,1750,3.3137,-0.00902383,0.329126,0.99832
733,1738,3.31345,-0.0097099,0.329573,0.997712
745,1726,3.31245,-0.0108648,0.33003,0.99683
757,1714,3.31159,-0.0116616,0.330483,0.995923
769,1702,3.31293,-0.00967842,0.329802,0.995193
781,1690,3.31218,-0.0103994,0.330251,0.993194
793,1678,3.31132,-0.0115652,0.330718,0.993703
805,1666,3.31293,-0.00918418,0.330137,0.991741
817,1654,3.31243,-0.00971175,0.32957,0.992768
829,1642,3.31218,-0.0110077,0.330021,0.991786
841,1630,3.3126,-0.00861207,0.329337,0.991041
853,1618,3.31218,-0.00982765,0.329793,0.9901
865,1606,3.31197,-0.010495,0.329874,0.989717
877,1594,3.31126,-0.0116955,0.330248,0.988792
889,1582,3.31168,-0.00992807,0.330033,0.987486
901,1570,3.31145,-0.0105203,0.330024,0.987102
913,1558,3.31078,-0.0117598,0.330496,0.98621
925,1546,3.31202,-0.00926246,0.329347,0.985647
937,1534,3.31215,-0.00921447,0.329007,0.9844
949,1522,3.30994,-0.0165936,0.330278,0.983395
961,1510,3.31174,-0.00659369,0.328782,0.98226
973,1498,3.31162,-0.0120759,0.328181,0.982028
985,1486,3.31046,-0.0118388,0.32865,0.980464
997,1474,3.31206,-0.00933764,0.327583,0.979844
1009,1462,3.31044,-0.0122163,0.328894,0.978948
1021,1450,3.30985,-0.0118807,0.328885,0.977842
1033,1438,3.31052,-0.0115532,0.329248,0.976718
1045,1426,3.3102,-0.0144701,0.327803,0.975398
1057,1414,3.31105,-0.0109478,0.326573,0.974134
1069,1402,3.31011,-0.0155113,0.327988,0.973524
1081,1390,3.30913,-0.0135266,0.327518,0.972318
1093,1378,3.31035,-0.0132598,0.326836,0.971527
1105,1366,3.3098,-0.0100414,0.326016,0.96976
1117,1354,3.30927,-0.00916463,0.32601,0.968967
1129,1342,3.30941,-0.0143328,0.325325,0.967443
1141,1330,3.30903,-0.0139685,0.32532,0.966359
1153,1318,3.31047,-0.0104562,0.324159,0.965062
1165,1306,3.30971,-0.0160666,0.324045,0.964378
1177,1294,3.31027,-0.00662354,0.323469,0.96248
1189,1282,3.3092,-0.0139716,0.323823,0.961896
1201,1270,3.30852,-0.0136329,0.323818,0.960808
1213,1258,3.30992,-0.00855232,0.322189,0.959289
1225,1246,3.30876,-0.0136332,0.322189,0.957464
1237,1234,3.30978,-0.0149627,0.321972,0.956894
1249,1222,3.30835,-0.0146609,0.322396,0.955615
1261,1210,3.30916,-0.0134568,0.322226,0.95391
1273,1198,3.30836,-0.0146692,0.322224,0.953487
1285,1186,3.30847,-0.0145465,0.322494,0.952038
1297,1174,3.30795,-0.0141343,0.322017,0.951407
1309,1162,3.30848,-0.00962024,0.320872,0.949142
1321,1150,3.30804,-0.0131321,0.320389,0.947118
1333,1138,3.3086,-0.011325,0.319704,0.944534
1345,1126,3.30809,-0.0125361,0.3197,0.945226
1357,1114,3.30866,-0.0112405,0.31949,0.943557
1369,1102,3.30785,-0.0109456,0.319485,0.942426
1381,1090,3.30818,-0.00975626,0.318907,0.940743
1393,1078,3.30803,-0.0108451,0.317388,0.93932
1405,1066,3.30764,-0.0116084,0.317661,0.937662
1417,1054,3.30672,-0.0143836,0.318606,0.93705
1429,1042,3.30765,-0.00813808,0.316966,0.934785
1441,1030,3.30626,-0.0166638,0.317361,0.933805
1453,1018,3.30683,-0.0148016,0.317343,0.932214
1465,1006,3.30597,-0.0135091,0.316372,0.930533
1477,994,3.30728,-0.00910318,0.314743,0.928283
1489,982,3.30532,-0.016121,0.315218,0.926883
1501,970,3.30644,-0.0131312,0.314064,0.925217
1513,958,3.30505,-0.0148867,0.315001,0.923876
1525,946,3.30636,-0.00956261,0.313364,0.922351
1537,934,3.30673,-0.0147816,0.313626,0.92096
1549,922,3.30576,-0.0116919,0.312607,0.918905
1561,910,3.3055,-0.013862,0.313351,0.917568
1573,898,3.30438,-0.0176361,0.314306,0.916471
1585,886,3.30536,-0.00953182,0.312209,0.91407
1597,874,3.3062,-0.00812997,0.311526,0.9126
1609,862,3.30413,-0.0153028,0.31199,0.910883
1621,850,3.3051,-0.00892408,0.311801,0.909597
1633,838,3.30359,-0.0143239,0.311792,0.907745
1645,826,3.3044,-0.0113483,0.31064,0.906035
1657,814,3.30483,-0.0101306,0.310442,0.904302
1669,802,3.30312,-0.0104817,0.310924,0.902653
1681,790,3.30403,-0.0124398,0.309285,0.900816
1693,778,3.3044,-0.0101863,0.30919,0.898544
1705,766,3.30271,-0.0122659,0.309667,0.897071
1717,754,3.30362,-0.0107453,0.30698,0.894865
1729,742,3.30405,-0.00948273,0.306784,0.893162
1741,730,3.30315,-0.0119571,0.306828,0.891695
1753,718,3.30338,-0.0146226,0.305675,0.889593
1765,706,3.3029,-0.0146733,0.306394,0.888004
1777,694,3.30166,-0.0157925,0.306393,0.886161
1789,682,3.3024,-0.0116953,0.305243,0.883706
1801,670,3.30261,-0.0141549,0.303644,0.881475
1813,658,3.30213,-0.00945608,0.30268,0.879075
1825,646,3.30239,-0.0112439,0.302974,0.878469
1837,634,3.30272,-0.00888467,0.302289,0.875914
1849,622,3.30105,-0.0148974,0.302287,0.873856
1861,610,3.30101,-0.0086388,0.30259,0.872202
1873,598,3.30125,-0.0133279,0.301912,0.869917
1885,586,3.30206,-0.0124386,0.299409,0.867388
1897,574,3.30003,-0.01189,0.29931,0.865073
1909,562,3.30032,-0.0140269,0.300088,0.863858
1921,550,3.30136,-0.010777,0.298927,0.862167
1933,538,3.30128,-0.0119017,0.299697,0.860324
1945,526,3.2999,-0.0112161,0.299222,0.858347
1957,514,3.29992,-0.0152374,0.298554,0.856219
1969,502,3.30036,-0.0127948,0.297891,0.853961
1981,490,3.30051,-0.00805537,0.296717,0.851883
1993,478,3.29865,-0.0145247,0.296718,0.849671
2005,466,3.29977,-0.0105506,0.295079,0.84707
2017,454,3.29964,-0.0092495,0.295439,0.845341
2029,442,3.30037,-0.0138676,0.29375,0.843387
2041,430,3.29749,-0.016961,0.295703,0.841308
2053,418,3.298713,-0.0125428,0.293569,0.839088
2065,406,3.29946,-0.00816201,0.292402,0.836607
2077,394,3.29911,-0.0106747,0.291753,0.834357
2089,382,3.29694,-0.0156008,0.293211,0.832714
2101,370,3.29698,-0.0186315,0.292054,0.830482
2113,358,3.29743,-0.0178736,0.291408,0.828472
2125,346,3.29778,-0.0153167,0.290738,0.826201
2137,334,3.29828,-0.0125977,0.289597,0.824256
2149,322,3.2963,-0.017291,0.289075,0.821712
2161,310,3.2973,-0.012776,0.287432,0.81946
2173,298,3.29677,-0.016602,0.286778,0.816485
2185,286,3.29799,-0.00943658,0.284648,0.814327
2197,274,3.29755,-0.0150789,0.283996,0.811784
2209,262,3.29592,-0.0142089,0.283497,0.808267
2221,250,3.29682,-0.0117168,0.282432,0.807496
2233,238,3.29667,-0.0166699,0.281769,0.80526
2245,226,3.29615,-0.00842869,0.282005,0.803212
2257,214,3.29538,-0.0194581,0.282135,0.801323
2269,202,3.29477,-0.015294,0.281419,0.798642
2281,190,3.29564,-0.0146462,0.278874,0.795689
2293,178,3.29496,-0.0123842,0.278645,0.793268
2305,166,3.29453,-0.0149886,0.277442,0.791152
2317,154,3.29583,-0.011161,0.275885,0.788381
2329,142,3.2955,-0.0085413,0.275622,0.786078
2341,130,3.2941,-0.0173952,0.276496,0.784305
2353,118,3.29297,-0.0146951,0.274955,0.782019
2365,106,3.29314,-0.0139224,0.272876,0.779064
2377,94,3.29363,-0.0112216,0.27173,0.777038
2389,82,3.29277,-0.0171629,0.271549,0.774246
2401,70,3.29435,-0.0105391,0.269068,0.771711
2413,58,3.29149,-0.0202141,0.269539,0.769379
2425,46,3.29222,-0.0167569,0.268406,0.76767
2437,34,3.29086,-0.0180296,0.269599,0.765927
2449,22,3.29112,-0.0133712,0.267957,0.763396
2461,10,3.2913,-0.011828,0.267305,0.76196
2468,3,3.28978,-0.0180413,0.266832,0.760276