Folder: MyBatteryML/hust_correlation_analysis/matrices (part 33)

File: HUST_9-4_cycle_feature_matrix.csv
cycle_number,rul,voltage,current,capacity,charge_capacity
1,1977,3.31629,0.02206,0.274571,1.03893
10,1968,3.30445,-0.0152296,0.287697,1.02347
19,1959,3.30844,-0.0090293,0.284143,1.02821
28,1950,3.30842,-0.010543,0.282848,1.03071
37,1941,3.30986,-0.0106895,0.281655,1.03162
46,1932,3.31106,-0.0106343,0.281263,1.03164
55,1923,3.31196,-0.00878116,0.27992,1.03073
64,1914,3.31141,-0.00942327,0.279923,1.0304
73,1905,3.31317,-0.00749259,0.278842,1.02952
82,1896,3.31216,-0.01407,0.279958,1.02854
91,1887,3.31068,-0.01503,0.280357,1.0278
100,1878,3.31145,-0.0113478,0.279368,1.02703
109,1869,3.31284,-0.0094755,0.278896,1.02589
118,1860,3.31202,-0.0101291,0.278826,1.02534
127,1851,3.31275,-0.00830582,0.278136,1.02441
136,1842,3.31193,-0.0138878,0.279232,1.02373
145,1833,3.31197,-0.0101927,0.278673,1.02272
154,1824,3.31135,-0.0127284,0.278987,1.02199
163,1815,3.31163,-0.00929224,0.27838,1.02083
172,1806,3.31205,-0.0180466,0.279247,1.02038
181,1797,3.31049,-0.0106998,0.278929,1.01964
190,1788,3.3103,-0.0116052,0.278927,1.01918
199,1779,3.31191,-0.013696,0.278588,1.01893
208,1770,3.31162,-0.0102388,0.278366,1.01777
217,1761,3.31073,-0.01065,0.27839,1.01734
226,1752,3.3117,-0.0132473,0.278446,1.01658
235,1743,3.31208,-0.00940194,0.277853,1.01564
244,1734,3.31057,-0.00969957,0.278253,1.01525
253,1725,3.31104,-0.00987647,0.278252,1.01514
262,1716,3.30999,-0.0106238,0.278663,1.01455
271,1707,3.30943,-0.013161,0.278978,1.01382
280,1698,3.30963,-0.0142947,0.278724,1.01301
289,1689,3.31108,-0.0119369,0.278029,1.01231
298,1680,3.31099,-0.00785286,0.277006,1.01168
307,1671,3.31021,-0.0135741,0.278028,1.01149
316,1662,3.30998,-0.0138805,0.278025,1.01131
325,1653,3.3098,-0.0152776,0.278579,1.01015
334,1644,3.30932,-0.0111404,0.277821,1.00953
343,1635,3.31042,-0.0133573,0.277636,1.00901
352,1626,3.31006,-0.0143676,0.27789,1.00849
361,1617,3.30963,-0.0147325,0.278042,1.00808
370,1608,3.30885,-0.0153859,0.278043,1.00774
379,1599,3.31157,-0.00826745,0.276325,1.0065
388,1590,3.31117,-0.00887853,0.276331,1.00621
397,1581,3.31023,-0.00964806,0.276481,1.00558
406,1572,3.31137,-0.0118614,0.276401,1.00529
415,1563,3.30896,-0.0157817,0.277916,1.00498
424,1554,3.30935,-0.0132928,0.277223,1.0041
433,1545,3.30948,-0.013951,0.277227,1.00379
442,1536,3.30966,-0.0144747,0.277218,1.0035
451,1527,3.31081,-0.0122605,0.276655,1.00248
460,1518,3.31056,-0.0083169,0.275648,1.0015
469,1509,3.30912,-0.0116542,0.276757,1.00175
478,1500,3.31049,-0.00932044,0.275646,1.00102
487,1491,3.30893,-0.0153533,0.276843,1.00048
496,1482,3.30919,-0.0155937,0.276837,1.00037
505,1473,3.30954,-0.0113854,0.276223,0.999538
514,1464,3.30974,-0.00944247,0.275516,0.998332
523,1455,3.31058,-0.00936291,0.274942,0.998622
532,1446,3.31035,-0.0103672,0.275262,0.99789
541,1437,3.30835,-0.0114336,0.275931,0.997114
550,1428,3.30876,-0.013754,0.276016,0.996545
559,1419,3.31008,-0.0094918,0.27497,0.996183
568,1410,3.30955,-0.0100858,0.27462,0.995651
577,1401,3.30864,-0.0111163,0.275475,0.994879
586,1392,3.30955,-0.0132032,0.275474,0.994448
595,1383,3.30908,-0.0145852,0.275896,0.993548
604,1374,3.30819,-0.0151952,0.27589,0.993208
613,1365,3.30952,-0.0129641,0.27494,0.992202
622,1356,3.30914,-0.0118144,0.275003,0.991953
631,1347,3.31027,-0.00926154,0.273886,0.991288
640,1338,3.30786,-0.0149053,0.275744,0.991016
649,1329,3.30926,-0.0105805,0.274047,0.990421
658,1320,3.30916,-0.0116127,0.274467,0.989693
667,1311,3.30887,-0.0147461,0.274564,0.98742
676,1302,3.3083,-0.014985,0.274556,0.988609
685,1293,3.30943,-0.0109991,0.273923,0.9876
694,1284,3.30929,-0.013618,0.273854,0.987133
703,1275,3.30844,-0.014725,0.274275,0.986346
712,1266,3.30958,-0.0103447,0.272954,0.985757
721,1257,3.30932,-0.0114086,0.273378,0.98501
730,1248,3.30771,-0.012118,0.273803,0.984434
739,1239,3.30774,-0.0147952,0.273735,0.983931
748,1230,3.30887,-0.0153947,0.273476,0.983641
757,1221,3.30914,-0.0134065,0.272772,0.98246
766,1212,3.30746,-0.0124356,0.273261,0.981886
775,1203,3.30962,-0.0100081,0.271869,0.98113
784,1194,3.30856,-0.0159243,0.273363,0.980789
793,1185,3.30798,-0.0118662,0.272719,0.979776
802,1176,3.308,-0.0149965,0.272825,0.978855
811,1167,3.30851,-0.0104594,0.271999,0.978277
820,1158,3.30843,-0.01196,0.272178,0.977345
829,1149,3.30761,-0.0126393,0.272176,0.977
838,1140,3.30884,-0.00988569,0.271205,0.976174
847,1131,3.30905,-0.0109241,0.271202,0.975651
856,1122,3.30835,-0.0123372,0.271622,0.974715
865,1113,3.30722,-0.0151584,0.271993,0.973935
874,1104,3.3097,-0.0123163,0.270599,0.97339
883,1095,3.30971,-0.00894926,0.270367,0.972017
892,1086,3.3068,-0.0152944,0.271886,0.971264
901,1077,3.30853,-0.0123825,0.270488,0.97072
910,1068,3.30811,-0.0137816,0.270914,0.969814
919,1059,3.30872,-0.00957236,0.269817,0.969048
928,1050,3.3073,-0.0112046,0.270433,0.967818
937,1041,3.30779,-0.0135663,0.270376,0.966048
946,1032,3.30815,-0.0146035,0.27012,0.967025
955,1023,3.30687,-0.016019,0.270896,0.966113
964,1014,3.30762,-0.0140029,0.26994,0.964651
973,1005,3.30726,-0.0150859,0.270013,0.964144
982,996,3.30679,-0.0160581,0.270447,0.963463
991,987,3.30666,-0.0123567,0.269782,0.962216
1000,978,3.30593,-0.0152153,0.270165,0.96143
1009,969,3.30592,-0.0170373,0.270344,0.960343
1018,960,3.3074,-0.0140829,0.269182,0.959783
1027,951,3.3064,-0.0161001,0.269581,0.958388
1036,942,3.30644,-0.0136048,0.269088,0.957348
1045,933,3.30652,-0.0149027,0.269084,0.956987
1054,924,3.30686,-0.0110478,0.268404,0.955511
1063,915,3.30662,-0.0143088,0.268549,0.954599
1072,906,3.30631,-0.0100732,0.267864,0.953543
1081,897,3.30698,-0.0137173,0.268003,0.952445
1090,888,3.30585,-0.0128809,0.268052,0.951994
1099,879,3.30453,-0.0166569,0.268898,0.950607
1108,870,3.30441,-0.012354,0.268612,0.949567
1117,861,3.30648,-0.0101421,0.26652,0.948609
1126,852,3.30639,-0.0138449,0.267372,0.947269
1135,843,3.30582,-0.00981142,0.266674,0.946074
1144,834,3.30385,-0.0163788,0.267819,0.945855
1153,825,3.30571,-0.0146158,0.266829,0.944451
1162,816,3.3056,-0.0105203,0.26613,0.943516
1171,807,3.30483,-0.0128775,0.266774,0.941723
1180,798,3.30343,-0.0159349,0.267195,0.940934
1189,789,3.30328,-0.0177966,0.267392,0.939848
1198,780,3.30416,-0.0155719,0.266655,0.93866
1207,771,3.30533,-0.0141178,0.266004,0.937088
1216,762,3.30366,-0.0161521,0.266321,0.935697
1225,753,3.30409,-0.0139208,0.26558,0.93447
1234,744,3.30437,-0.0101263,0.264868,0.933119
1243,735,3.30397,-0.0116939,0.265149,0.932168
1252,726,3.30417,-0.00979436,0.26432,0.930756
1261,717,3.30107,-0.0175895,0.266428,0.929643
1270,708,3.30438,-0.00986098,0.26378,0.928256
1279,699,3.30302,-0.0118026,0.264234,0.927125
1288,690,3.30379,-0.0103358,0.2637,0.925303
1297,681,3.30229,-0.0122113,0.263913,0.924235
1306,672,3.30281,-0.0100056,0.263155,0.922961
1315,663,3.30331,-0.0142579,0.263351,0.921698
1324,654,3.30234,-0.0166827,0.264035,0.92017
1333,645,3.30226,-0.0147489,0.26328,0.918734
1342,636,3.30026,-0.0168456,0.26422,0.91733
1351,627,3.30059,-0.0136943,0.263228,0.915598
1360,618,3.30221,-0.0112827,0.261746,0.914641
1369,609,3.30098,-0.0136879,0.262687,0.913096
1378,600,3.3004,-0.0122904,0.262152,0.911193
1387,591,3.2995,-0.0162371,0.262615,0.910082
1396,582,3.29933,-0.012672,0.261864,0.908493
1405,573,3.30039,-0.011599,0.261325,0.906429
1414,564,3.30018,-0.0156027,0.261964,0.905339
1423,555,3.29881,-0.0185707,0.262252,0.903554
1432,546,3.30026,-0.0108597,0.260244,0.901672
1441,537,3.29895,-0.0154559,0.260957,0.900068
1450,528,3.29857,-0.0179874,0.261384,0.898759
1459,519,3.2982,-0.017212,0.26091,0.89655
1468,510,3.29834,-0.0196779,0.261146,0.895263
1477,501,3.29726,-0.0186145,0.260873,0.893167
1486,492,3.29813,-0.0173503,0.259849,0.891416
1495,483,3.2963,-0.0201616,0.260589,0.889742
1504,474,3.2974,-0.0191597,0.259555,0.887855
1513,465,3.29667,-0.017791,0.25927,0.885847
1522,456,3.29785,-0.0167491,0.258236,0.883957
1531,447,3.29714,-0.0140342,0.257944,0.881658
1540,438,3.29613,-0.0187003,0.258207,0.880329
1549,429,3.29614,-0.0178458,0.257675,0.878114
1558,420,3.29663,-0.01719,0.257141,0.875802
1567,411,3.29635,-0.0163728,0.256611,0.873538
1576,402,3.29359,-0.0199142,0.257818,0.871589
1585,393,3.29344,-0.0183762,0.2571,0.869603
1594,384,3.29427,-0.0180106,0.25605,0.867402
1603,375,3.29466,-0.0242228,0.255065,0.86497
1612,366,3.29489,-0.0190229,0.253434,0.862618
1621,357,3.29632,-0.0135972,0.251361,0.860627
1630,348,3.29665,-0.0157815,0.249286,0.858212
1639,339,3.29431,-0.0181125,0.249783,0.855573
1648,330,3.29406,-0.0239379,0.248726,0.853341
1657,321,3.29452,-0.0217552,0.247668,0.850701
1666,312,3.29522,-0.0101331,0.244722,0.84787
1675,303,3.29541,-0.0164895,0.243651,0.845444
1684,294,3.29431,-0.018804,0.243453,0.843036
1693,285,3.29504,-0.0174745,0.242386,0.84122
1702,276,3.29575,-0.0204022,0.240571,0.838052
1711,267,3.29584,-0.0180384,0.239232,0.835707
1720,258,3.2968,-0.01766,0.236752,0.832963
1729,249,3.29682,-0.0156894,0.235591,0.830381
1738,240,3.29752,-0.0181487,0.233585,0.82747
1747,231,3.29606,-0.0200299,0.233423,0.825264
1756,222,3.29604,-0.0159151,0.232492,0.822137
1765,213,3.29569,-0.0230076,0.231241,0.819512
1774,204,3.29575,-0.0169063,0.229166,0.816431
1783,195,3.2955,-0.0259276,0.228555,0.814023
1792,186,3.2955,-0.0212076,0.226967,0.811356
1801,177,3.29776,-0.00998107,0.223712,0.808206
1810,168,3.29639,-0.0200749,0.223568,0.805161
1819,159,3.29646,-0.0129487,0.222108,0.802404
1828,150,3.29531,-0.0273238,0.221699,0.800092
1837,141,3.29548,-0.0189019,0.219944,0.796493
1846,132,3.29437,-0.0187776,0.219341,0.794109
1855,123,3.29624,-0.0193891,0.216726,0.790995
1864,114,3.29659,-0.0149678,0.215117,0.788147
1873,105,3.29654,-0.0228458,0.21377,0.785344
1882,96,3.29721,-0.0203716,0.212287,0.782692
1891,87,3.29971,-0.00821887,0.209161,0.779678
1900,78,3.29856,-0.0163041,0.208484,0.776562
1909,69,3.29791,-0.0143564,0.2078,0.773465
1918,60,3.29703,-0.0167695,0.20725,0.771367
1927,51,3.29497,-0.0255374,0.207045,0.767802
1936,42,3.29728,-0.0155669,0.204333,0.764851
1945,33,3.29468,-0.0281755,0.204262,0.762499
1954,24,3.29371,-0.0269264,0.2037,0.759177
1963,15,3.29496,-0.0217978,0.201741,0.756534
1972,6,3.29337,-0.0281324,0.200773,0.753205
1975,3,3.29532,-0.0224873,0.19914,0.751881

File: HUST_9-5_cycle_feature_matrix.csv
cycle_number,rul,voltage,current,capacity,charge_capacity
1,2170,3.31722,0.00527521,0.268492,1.02918
11,2160,3.3077,-0.0212447,0.277143,1.01375
21,2150,3.31057,-0.0227071,0.275025,1.01961
31,2140,3.31228,-0.0219372,0.273019,1.02117
41,2130,3.31305,-0.0224506,0.272221,1.02136
51,2120,3.31607,-0.0199911,0.270458,1.02097
61,2110,3.31535,-0.0211421,0.270449,1.02039
71,2100,3.31423,-0.0223935,0.270839,1.01952
81,2090,3.31601,-0.0206461,0.269474,1.01855
91,2080,3.31534,-0.0218979,0.269854,1.01766
101,2070,3.3165,-0.0200051,0.268866,1.01651
111,2060,3.31601,-0.0213178,0.269264,1.01564
121,2050,3.31448,-0.0227028,0.270048,1.01449
131,2040,3.31588,-0.0208915,0.269071,1.01332
141,2030,3.31548,-0.0215534,0.269066,1.01297
151,2020,3.3139,-0.0229711,0.269857,1.0118
161,2010,3.31491,-0.0209137,0.268868,1.01072
171,2000,3.31455,-0.0216009,0.268869,1.01037
181,1990,3.31425,-0.0229585,0.269269,1.00946
191,1980,3.31556,-0.0203886,0.268284,1.00866
201,1970,3.31465,-0.0209928,0.268708,1.00816
211,1960,3.31422,-0.0218896,0.269079,1.00745
221,1950,3.31336,-0.023097,0.269483,1.00665
231,1940,3.31477,-0.0205425,0.268096,1.00604
241,1930,3.31421,-0.0220163,0.268591,1.00507
251,1920,3.31377,-0.0218728,0.268885,1.00487
261,1910,3.31411,-0.0224836,0.269283,1.00431
271,1900,3.3125,-0.0233478,0.269958,1.00368
281,1890,3.31359,-0.021452,0.268695,1.00246
291,1880,3.3131,-0.0221663,0.268705,1.00214
301,1870,3.31296,-0.0227483,0.268689,1.00184
311,1860,3.31477,-0.0207919,0.267702,1.0007
321,1850,3.31409,-0.0214447,0.267704,1.00039
331,1840,3.31321,-0.0222,0.2681,0.999746
341,1830,3.31301,-0.022819,0.268107,0.999473
351,1820,3.31246,-0.0234956,0.268768,0.998913
361,1810,3.31406,-0.0216041,0.267517,0.997748
371,1800,3.3131,-0.0223808,0.267933,0.997141
381,1790,3.31305,-0.0223099,0.267511,0.997366
391,1780,3.31278,-0.0235686,0.267923,0.996557
401,1770,3.31437,-0.0209092,0.266522,0.995957
411,1760,3.31338,-0.0217004,0.266927,0.995347
421,1750,3.31288,-0.0223877,0.267348,0.994811
431,1740,3.31312,-0.0229985,0.267331,0.994472
441,1730,3.31135,-0.0237323,0.26775,0.993911
451,1720,3.31351,-0.0210942,0.26634,0.9933
461,1710,3.31336,-0.0217382,0.266748,0.99277
471,1700,3.31234,-0.0231903,0.267168,0.991857
481,1690,3.31192,-0.023191,0.267154,0.99183
491,1680,3.31439,-0.0205325,0.26574,0.991204
501,1670,3.31263,-0.0219734,0.266568,0.990064
511,1660,3.31323,-0.0219905,0.266155,0.990277
521,1650,3.31247,-0.0233333,0.266662,0.989414
531,1640,3.31153,-0.0240519,0.266977,0.988828
541,1630,3.31357,-0.0213148,0.265655,0.988232
551,1620,3.31256,-0.0221121,0.265983,0.987655
561,1610,3.31266,-0.022743,0.265975,0.987334
571,1600,3.31185,-0.0235769,0.266386,0.986692
581,1590,3.31087,-0.0241896,0.266388,0.986415
591,1580,3.31341,-0.0213976,0.264963,0.985825
601,1570,3.31212,-0.0227822,0.265796,0.984712
611,1560,3.31148,-0.0235894,0.266207,0.984107
621,1550,3.31085,-0.0242837,0.266212,0.984035
631,1540,3.31343,-0.0215596,0.26479,0.983185
641,1530,3.31171,-0.022265,0.26521,0.982397
651,1520,3.31194,-0.02295,0.265598,0.982131
661,1510,3.31077,-0.0244385,0.265631,0.981378
671,1500,3.31323,-0.0209652,0.264202,0.981113
681,1490,3.3119,-0.0224377,0.264622,0.980189
691,1480,3.31238,-0.0230169,0.264622,0.979929
701,1470,3.31085,-0.0238615,0.265035,0.97929
711,1460,3.3111,-0.0244766,0.265033,0.979002
721,1450,3.31223,-0.0217525,0.264026,0.97815
731,1440,3.31117,-0.0232458,0.26444,0.97719
741,1430,3.31128,-0.0237933,0.264441,0.976944
751,1420,3.31002,-0.0246923,0.264869,0.976316
761,1410,3.31177,-0.0219545,0.263426,0.975667
771,1400,3.31188,-0.0226089,0.263427,0.974046
781,1390,3.311,-0.0238791,0.263848,0.974529
791,1380,3.30992,-0.0247748,0.264269,0.973888
801,1370,3.31205,-0.0228204,0.263258,0.97267
811,1360,3.3111,-0.0234407,0.263251,0.972343
821,1350,3.31047,-0.0242415,0.263679,0.97177
831,1340,3.31185,-0.0221445,0.26266,0.970579
841,1330,3.3115,-0.0228392,0.26265,0.970244
851,1320,3.31064,-0.023647,0.263079,0.969655
861,1310,3.30965,-0.025097,0.263498,0.968726
871,1300,3.31184,-0.0222304,0.261815,0.96814
881,1290,3.31113,-0.0236938,0.262486,0.967225
891,1280,3.31038,-0.0243644,0.262474,0.966914
901,1270,3.30945,-0.0251811,0.2629,0.966276
911,1260,3.30987,-0.0231823,0.262307,0.964829
921,1250,3.3102,-0.023975,0.262309,0.964466
931,1240,3.30916,-0.0253322,0.262734,0.963601
941,1230,3.31056,-0.0232353,0.261713,0.962412
951,1220,3.31052,-0.0239478,0.261714,0.9621
961,1210,3.30962,-0.0245184,0.261713,0.961836
971,1200,3.31088,-0.0226153,0.260688,0.960532
981,1190,3.31019,-0.024091,0.26137,0.959629
991,1180,3.30904,-0.025812,0.261996,0.95842
1001,1170,3.31015,-0.0228415,0.260518,0.957801
1011,1160,3.3095,-0.024256,0.260949,0.956909
1021,1150,3.30875,-0.0257782,0.26139,0.956001
1031,1140,3.31038,-0.0228865,0.260168,0.955171
1041,1130,3.30897,-0.0244898,0.260789,0.954167
1051,1120,3.30845,-0.0257814,0.260781,0.953551
1061,1110,3.3093,-0.0238416,0.26019,0.952048
1071,1100,3.30853,-0.0245539,0.26019,0.950437
1081,1090,3.30887,-0.022577,0.259593,0.9502
1091,1080,3.30879,-0.02402,0.259599,0.949559
1101,1070,3.30763,-0.0255072,0.260028,0.94864
1111,1060,3.30798,-0.019542,0.259559,0.947488
1121,1050,3.30808,-0.0248648,0.259434,0.946509
1131,1040,3.30678,-0.0264421,0.259878,0.945568
1141,1030,3.30831,-0.0242474,0.258836,0.944377
1151,1020,3.30708,-0.0257412,0.259272,0.943453
1161,1010,3.30839,-0.0237024,0.258237,0.94217
1171,1000,3.30787,-0.0251149,0.258678,0.941316
1181,990,3.30609,-0.0266978,0.259114,0.940349
1191,980,3.3074,-0.0245343,0.258078,0.939129
1201,970,3.30666,-0.026055,0.258523,0.938209
1211,960,3.30816,-0.0238551,0.257474,0.936991
1221,950,3.30616,-0.0254493,0.257923,0.936041
1231,940,3.30761,-0.023235,0.256872,0.934803
1241,930,3.3066,-0.0248448,0.257332,0.933887
1251,920,3.30486,-0.0272702,0.258477,0.932344
1261,910,3.3067,-0.0249231,0.257056,0.931412
1271,900,3.30551,-0.0264381,0.257174,0.930499
1281,890,3.30623,-0.0251255,0.256584,0.928641
1291,880,3.30461,-0.026802,0.257039,0.92792
1301,870,3.30585,-0.0245163,0.255979,0.926433
1311,860,3.30475,-0.0268503,0.256434,0.925182
1321,850,3.30513,-0.0206158,0.255342,0.923972
1331,840,3.30429,-0.0269389,0.256289,0.922431
1341,830,3.30519,-0.0248453,0.255233,0.921133
1351,820,3.30495,-0.0195129,0.254875,0.919232
1361,810,3.30512,-0.0249697,0.254632,0.918611
1371,800,3.30366,-0.0274151,0.255544,0.917048
1381,790,3.30454,-0.0250402,0.254482,0.915832
1391,780,3.30212,-0.027689,0.255415,0.914208
1401,770,3.30388,-0.0252631,0.253877,0.913239
1411,760,3.3029,-0.0276558,0.254748,0.911999
1421,750,3.30323,-0.0261828,0.253736,0.910127
1431,740,3.30182,-0.0279771,0.254205,0.909107
1441,730,3.30324,-0.0263407,0.253132,0.907562
1451,720,3.30088,-0.0289594,0.254403,0.90597
1461,710,3.30239,-0.0273673,0.253001,0.90439
1471,700,3.30268,-0.0260612,0.252391,0.900913
1481,690,3.30129,-0.0284573,0.252869,0.901175
1491,680,3.3017,-0.0270194,0.252265,0.899268
1501,670,3.30031,-0.0295269,0.252739,0.897962
1511,660,3.30065,-0.0281317,0.252154,0.896065
1521,650,3.30203,-0.0263236,0.251055,0.894519
1531,640,3.29963,-0.0292063,0.252256,0.89283
1541,630,3.30031,-0.0276325,0.250939,0.891233
1551,620,3.30156,-0.0259437,0.249843,0.889635
1561,610,3.29964,-0.0295051,0.250818,0.88768
1571,600,3.2994,-0.0279601,0.250209,0.885752
1581,590,3.30052,-0.0261806,0.249105,0.884189
1591,580,3.29888,-0.0288477,0.249588,0.882838
1601,570,3.29897,-0.0283021,0.249219,0.880242
1611,560,3.29703,-0.0309821,0.249982,0.878937
1621,550,3.29769,-0.0292911,0.248868,0.877295
1631,540,3.29792,-0.0285317,0.248256,0.875016
1641,530,3.29869,-0.0269612,0.247642,0.873069
1651,520,3.29637,-0.0306921,0.248651,0.871078
1661,510,3.2968,-0.0268286,0.247028,0.869352
1671,500,3.29687,-0.032698,0.245825,0.867114
1681,490,3.29889,-0.0247922,0.243274,0.865097
1691,480,3.29665,-0.0285819,0.244282,0.863115
1701,470,3.29659,-0.0370383,0.243663,0.860813
1711,460,3.29734,-0.0306045,0.241522,0.859119
1721,450,3.29414,-0.0322279,0.242531,0.856815
1731,440,3.29541,-0.0358572,0.240396,0.854806
1741,430,3.29584,-0.0326482,0.239254,0.852523
1751,420,3.29621,-0.0296171,0.238123,0.850218
1761,410,3.29703,-0.0356703,0.236483,0.848198
1771,400,3.29722,-0.0325495,0.235334,0.845884
1781,390,3.29527,-0.030231,0.234844,0.843504
1791,380,3.29538,-0.0363671,0.233693,0.841205
1801,370,3.29591,-0.030741,0.232319,0.838907
1811,360,3.29672,-0.0368565,0.230406,0.836921
1821,350,3.29711,-0.0337827,0.229259,0.834604
1831,340,3.29732,-0.0307069,0.228096,0.832243
1841,330,3.29527,-0.0306524,0.228083,0.829896
1851,320,3.29521,-0.0369589,0.226924,0.827591
1861,310,3.29525,-0.033874,0.22576,0.825243
1871,300,3.29613,-0.0290695,0.224107,0.822611
1881,290,3.29598,-0.0353015,0.222929,0.820332
1891,280,3.29694,-0.0298,0.221266,0.817924
1901,270,3.2971,-0.027446,0.220089,0.815295
1911,260,3.29375,-0.0410439,0.221053,0.813377
1921,250,3.29481,-0.0338329,0.2189,0.810643
1931,240,3.29461,-0.0331277,0.218236,0.808346
1941,230,3.29439,-0.0406175,0.217012,0.805715
1951,220,3.29418,-0.0399681,0.216299,0.803388
1961,210,3.29478,-0.0324964,0.21413,0.800675
1971,200,3.29465,-0.0391235,0.212929,0.79837
1981,190,3.29534,-0.0341722,0.211242,0.795939
1991,180,3.2958,-0.0291929,0.209559,0.793037
2001,170,3.29439,-0.0334402,0.20892,0.790774
2011,160,3.29628,-0.0335109,0.207129,0.788071
2021,150,3.29611,-0.0310995,0.205908,0.785424
2031,140,3.29653,-0.0362103,0.204214,0.782749
2041,130,3.29609,-0.035458,0.203454,0.780455
2051,120,3.29595,-0.0306763,0.202216,0.777407
2061,110,3.29229,-0.043567,0.202676,0.775085
2071,100,3.2963,-0.0306957,0.198954,0.772075
2081,90,3.29331,-0.0333533,0.199257,0.769755
2091,80,3.29586,-0.0361849,0.196303,0.766785
2101,70,3.29549,-0.033912,0.195509,0.763779
2111,60,3.29693,-0.0285015,0.193325,0.761453
2121,50,3.2957,-0.0366669,0.192519,0.75848
2131,40,3.2966,-0.0313121,0.190337,0.756133
2141,30,3.29619,-0.0300197,0.18966,0.752814
2151,20,3.29667,-0.0354195,0.187785,0.750137
2161,10,3.29616,-0.0355995,0.186955,0.747525
2168,3,3.29386,-0.0345855,0.18695,0.745511